M- 10 del, 3, sur
Integration time: 5000 ms
Average: 1 scans
Nr of pixels used for smoothing: 0
Data measured with spectrometer serial number: 0604021S1
Wave   ;Sample
[nm]   ;[counts]
173,70;-271,00
174,30;-52,000
174,90;11,000
175,50;81,000
176,10;8,0000
176,70;99,000
177,30;23,000
177,90;-6,0000
178,50;-39,000
179,10;-109,00
179,70;47,000
180,30;-37,000
180,89;-57,000
181,49;-45,000
182,09;-61,000
182,69;-27,000
183,29;-10,0000
183,89;-6,0000
184,49;-40,000
185,09;135,00
185,69;58,000
186,29;-26,000
186,89;29,000
187,48;50,000
188,08;-13,000
188,68;57,000
189,28;-5,0000
189,88;18,000
190,48;-44,000
191,08;-49,000
191,68;-22,000
192,28;49,000
192,87;83,000
193,47;64,000
194,07;-42,000
194,67;-3,0000
195,27;39,000
195,87;105,00
196,47;25,000
197,06;21,000
197,66;24,000
198,26;-20,000
198,86;66,000
199,46;40,000
200,06;46,000
200,66;-30,000
201,25;64,000
201,85;11,000
202,45;-23,000
203,05;-14,000
203,65;-71,000
204,24;44,000
204,84;18,000
205,44;91,000
206,04;7,0000
206,64;0
207,24;153,00
207,83;-33,000
208,43;-32,000
209,03;-105,00
209,63;-69,000
210,22;-33,000
210,82;59,000
211,42;30,000
212,02;64,000
212,62;38,000
213,21;3,0000
213,81;-54,000
214,41;-9,0000
215,01;-66,000
215,60;6,0000
216,20;8,0000
216,80;17,000
217,40;-41,000
218,00;-13,000
218,59;-82,000
219,19;-28,000
219,79;-56,000
220,38;91,000
220,98;-28,000
221,58;79,000
222,18;11,000
222,77;-13,000
223,37;-11,000
223,97;-144,00
224,57;37,000
225,16;-17,000
225,76;20,000
226,36;-112,00
226,95;-63,000
227,55;-34,000
228,15;41,000
228,75;-157,00
229,34;-14,000
229,94;12,000
230,54;10,0000
231,13;21,000
231,73;26,000
232,33;73,000
232,92;-29,000
233,52;22,000
234,12;169,00
234,71;124,00
235,31;143,00
235,91;1,0000
236,50;-34,000
237,10;-5,0000
237,70;-5,0000
238,29;-16,000
238,89;-6,0000
239,49;11,000
240,08;-129,00
240,68;-33,000
241,28;-15,000
241,87;-5,0000
242,47;-53,000
243,06;79,000
243,66;14,000
244,26;-57,000
244,85;90,000
245,45;-12,000
246,05;35,000
246,64;-15,000
247,24;-3,0000
247,83;-92,000
248,43;-10,0000
249,03;-32,000
249,62;70,000
250,22;-98,000
250,81;-58,000
251,41;-3,0000
252,01;76,000
252,60;169,00
253,20;-113,00
253,79;31,000
254,39;-71,000
254,98;-39,000
255,58;-32,000
256,18;-27,000
256,77;88,000
257,37;-65,000
257,96;-85,000
258,56;12,000
259,15;9,0000
259,75;-100,000
260,34;55,000
260,94;4,0000
261,53;74,000
262,13;56,000
262,73;-60,000
263,32;45,000
263,92;-20,000
264,51;19,000
265,11;27,000
265,70;-72,000
266,30;79,000
266,89;86,000
267,49;-81,000
268,08;-35,000
268,68;100,000
269,27;21,000
269,87;-22,000
270,46;40,000
271,06;19,000
271,65;9,0000
272,25;-15,000
272,84;73,000
273,44;81,000
274,03;-41,000
274,62;47,000
275,22;-49,000
275,81;-43,000
276,41;111,00
277,00;-2,0000
277,60;60,000
278,19;113,00
278,79;27,000
279,38;9,0000
279,98;72,000
280,57;-40,000
281,16;-42,000
281,76;-7,0000
282,35;78,000
282,95;138,00
283,54;-32,000
284,14;-47,000
284,73;38,000
285,32;-93,000
285,92;12,000
286,51;-90,000
287,11;-29,000
287,70;39,000
288,29;-2,0000
288,89;3,0000
289,48;109,00
290,08;67,000
290,67;9,0000
291,26;26,000
291,86;-53,000
292,45;24,000
293,04;-65,000
293,64;54,000
294,23;-32,000
294,83;34,000
295,42;-6,0000
296,01;68,000
296,61;-76,000
297,20;4,0000
297,79;40,000
298,39;82,000
298,98;8,0000
299,57;-21,000
300,17;37,000
300,76;18,000
301,35;4,0000
301,95;44,000
302,54;-2,0000
303,13;60,000
303,73;6,0000
304,32;14,000
304,91;102,00
305,51;-26,000
306,10;-44,000
306,69;76,000
307,28;144,00
307,88;-37,000
308,47;106,00
309,06;2,0000
309,66;-108,00
310,25;49,000
310,84;14,000
311,43;6,0000
312,03;101,00
312,62;145,00
313,21;251,00
313,81;244,00
314,40;292,00
314,99;336,00
315,58;313,00
316,18;462,00
316,77;419,00
317,36;322,00
317,95;323,00
318,54;308,00
319,14;137,00
319,73;27,000
320,32;89,000
320,91;14,000
321,51;105,00
322,10;51,000
322,69;18,000
323,28;55,000
323,87;119,00
324,47;82,000
325,06;74,000
325,65;181,00
326,24;227,00
326,83;175,00
327,43;359,00
328,02;207,00
328,61;315,00
329,20;158,00
329,79;292,00
330,39;260,00
330,98;253,00
331,57;185,00
332,16;297,00
332,75;255,00
333,34;314,00
333,93;174,00
334,53;398,00
335,12;519,00
335,71;1005,0
336,30;1695,0
336,89;2367,0
337,48;2389,0
338,07;2281,0
338,67;2107,0
339,26;1987,0
339,85;1707,0
340,44;1137,0
341,03;372,00
341,62;209,00
342,21;237,00
342,80;244,00
343,39;104,00
343,99;151,00
344,58;228,00
345,17;107,00
345,76;144,00
346,35;169,00
346,94;185,00
347,53;157,00
348,12;215,00
348,71;405,00
349,30;457,00
349,89;385,00
350,48;484,00
351,07;511,00
351,66;611,00
352,26;684,00
352,85;989,00
353,44;1355,0
354,03;1387,0
354,62;1384,0
355,21;1447,0
355,80;1740,0
356,39;2167,0
356,98;3071,0
357,57;3238,0
358,16;3283,0
358,75;3251,0
359,34;2968,0
359,93;2688,0
360,52;2028,0
361,11;1380,0
361,70;570,00
362,29;379,00
362,88;365,00
363,47;386,00
364,06;332,00
364,65;436,00
365,24;360,00
365,83;443,00
366,42;454,00
367,01;489,00
367,60;416,00
368,19;523,00
368,78;543,00
369,37;633,00
369,95;820,00
370,54;747,00
371,13;833,00
371,72;831,00
372,31;752,00
372,90;753,00
373,49;1010,0
374,08;1173,0
374,67;1466,0
375,26;1635,0
375,85;1688,0
376,44;1696,0
377,03;1635,0
377,61;1614,0
378,20;1469,0
378,79;1503,0
379,38;1506,0
379,97;2139,0
380,56;2213,0
381,15;2154,0
381,74;2270,0
382,33;2172,0
382,91;2107,0
383,50;1776,0
384,09;1441,0
384,68;1438,0
385,27;1589,0
385,86;1711,0
386,45;1793,0
387,03;1741,0
387,62;1874,0
388,21;1859,0
388,80;1769,0
389,39;1628,0
389,98;1420,0
390,57;1304,0
391,15;1134,0
391,74;1143,0
392,33;834,00
392,92;925,00
393,51;923,00
394,09;907,00
394,68;983,00
395,27;933,00
395,86;916,00
396,45;861,00
397,03;805,00
397,62;767,00
398,21;794,00
398,80;1139,0
399,39;1237,0
399,97;1344,0
400,56;1256,0
401,15;1295,0
401,74;1249,0
402,32;1197,0
402,91;1180,0
403,50;833,00
404,09;994,00
404,67;1086,0
405,26;1256,0
405,85;1535,0
406,44;1625,0
407,02;1616,0
407,61;1483,0
408,20;1403,0
408,78;1380,0
409,37;1220,0
409,96;1174,0
410,55;1260,0
411,13;1120,0
411,72;1146,0
412,31;1052,0
412,89;1230,0
413,48;1127,0
414,07;1218,0
414,65;1256,0
415,24;1272,0
415,83;1234,0
416,42;1145,0
417,00;1156,0
417,59;1347,0
418,18;1325,0
418,76;1244,0
419,35;1412,0
419,94;1429,0
420,52;1477,0
421,11;1230,0
421,69;1194,0
422,28;1273,0
422,87;1209,0
423,45;1291,0
424,04;1267,0
424,63;1189,0
425,21;1258,0
425,80;1263,0
426,38;1459,0
426,97;1530,0
427,56;1319,0
428,14;1322,0
428,73;1292,0
429,31;1111,0
429,90;1078,0
430,49;910,00
431,07;791,00
431,66;735,00
432,24;733,00
432,83;774,00
433,42;918,00
434,00;1136,0
434,59;1236,0
435,17;1356,0
435,76;1476,0
436,34;1415,0
436,93;1407,0
437,51;1302,0
438,10;1281,0
438,69;929,00
439,27;789,00
439,86;592,00
440,44;729,00
441,03;709,00
441,61;766,00
442,20;803,00
442,78;728,00
443,37;740,00
443,95;859,00
444,54;829,00
445,12;851,00
445,71;784,00
446,29;793,00
446,88;792,00
447,46;664,00
448,05;759,00
448,63;677,00
449,22;680,00
449,80;730,00
450,39;618,00
450,97;534,00
451,56;478,00
452,14;586,00
452,72;495,00
453,31;550,00
453,89;688,00
454,48;583,00
455,06;538,00
455,65;517,00
456,23;572,00
456,81;588,00
457,40;561,00
457,98;510,00
458,57;518,00
459,15;511,00
459,74;635,00
460,32;762,00
460,90;589,00
461,49;738,00
462,07;678,00
462,66;994,00
463,24;889,00
463,82;1021,0
464,41;1036,0
464,99;1161,0
465,57;943,00
466,16;1053,0
466,74;1046,0
467,33;786,00
467,91;816,00
468,49;681,00
469,08;645,00
469,66;643,00
470,24;614,00
470,83;556,00
471,41;582,00
471,99;590,00
472,58;574,00
473,16;495,00
473,74;466,00
474,33;516,00
474,91;357,00
475,49;429,00
476,08;418,00
476,66;484,00
477,24;606,00
477,82;545,00
478,41;472,00
478,99;535,00
479,57;639,00
480,16;651,00
480,74;669,00
481,32;671,00
481,90;762,00
482,49;736,00
483,07;767,00
483,65;853,00
484,23;893,00
484,82;915,00
485,40;1170,0
485,98;1433,0
486,56;1554,0
487,15;1610,0
487,73;1690,0
488,31;1683,0
488,89;1386,0
489,47;1325,0
490,06;1206,0
490,64;994,00
491,22;957,00
491,80;864,00
492,39;685,00
492,97;676,00
493,55;636,00
494,13;698,00
494,71;614,00
495,29;590,00
495,88;508,00
496,46;525,00
497,04;516,00
497,62;295,00
498,20;480,00
498,78;493,00
499,37;544,00
499,95;908,00
500,53;1267,0
501,11;1274,0
501,69;1074,0
502,27;1219,0
502,85;987,00
503,44;1074,0
504,02;913,00
504,60;658,00
505,18;504,00
505,76;454,00
506,34;501,00
506,92;411,00
507,50;466,00
508,08;383,00
508,67;319,00
509,25;425,00
509,83;335,00
510,41;369,00
510,99;283,00
511,57;222,00
512,15;250,00
512,73;335,00
513,31;517,00
513,89;187,00
514,47;298,00
515,05;342,00
515,63;305,00
516,21;462,00
516,79;312,00
517,38;283,00
517,96;365,00
518,54;346,00
519,12;497,00
519,70;431,00
520,28;347,00
520,86;340,00
521,44;372,00
522,02;430,00
522,60;466,00
523,18;331,00
523,76;414,00
524,34;241,00
524,92;475,00
525,50;282,00
526,08;277,00
526,66;334,00
527,24;317,00
527,82;296,00
528,39;365,00
528,97;246,00
529,55;273,00
530,13;286,00
530,71;326,00
531,29;276,00
531,87;394,00
532,45;284,00
533,03;342,00
533,61;294,00
534,19;426,00
534,77;417,00
535,35;396,00
535,93;525,00
536,51;248,00
537,08;170,00
537,66;317,00
538,24;389,00
538,82;319,00
539,40;366,00
539,98;304,00
540,56;334,00
541,14;316,00
541,72;271,00
542,29;377,00
542,87;374,00
543,45;391,00
544,03;293,00
544,61;506,00
545,19;288,00
545,77;280,00
546,34;462,00
546,92;339,00
547,50;427,00
548,08;414,00
548,66;456,00
549,23;348,00
549,81;334,00
550,39;314,00
550,97;380,00
551,55;229,00
552,13;334,00
552,70;335,00
553,28;369,00
553,86;297,00
554,44;298,00
555,01;314,00
555,59;271,00
556,17;337,00
556,75;458,00
557,33;297,00
557,90;406,00
558,48;353,00
559,06;277,00
559,64;301,00
560,21;380,00
560,79;348,00
561,37;346,00
561,95;319,00
562,52;247,00
563,10;386,00
563,68;244,00
564,25;366,00
564,83;246,00
565,41;299,00
565,99;402,00
566,56;389,00
567,14;557,00
567,72;661,00
568,29;612,00
568,87;673,00
569,45;813,00
570,02;747,00
570,60;521,00
571,18;511,00
571,75;386,00
572,33;338,00
572,91;308,00
573,48;256,00
574,06;338,00
574,64;263,00
575,21;405,00
575,79;265,00
576,37;373,00
576,94;288,00
577,52;268,00
578,09;340,00
578,67;336,00
579,25;302,00
579,82;305,00
580,40;256,00
580,97;358,00
581,55;242,00
582,13;315,00
582,70;319,00
583,28;329,00
583,85;263,00
584,43;235,00
585,01;289,00
585,58;195,00
586,16;255,00
586,73;197,00
587,31;273,00
587,88;322,00
588,46;228,00
589,03;294,00
589,61;371,00
590,18;333,00
590,76;307,00
591,34;243,00
591,91;277,00
592,49;462,00
593,06;404,00
593,64;367,00
594,21;430,00
594,79;329,00
595,36;424,00
595,94;332,00
596,51;321,00
597,09;260,00
597,66;284,00
598,24;204,00
598,81;274,00
599,38;212,00
599,96;319,00
600,53;292,00
601,11;238,00
601,68;336,00
602,26;316,00
602,83;316,00
603,41;289,00
603,98;179,00
604,56;157,00
605,13;249,00
605,70;254,00
606,28;328,00
606,85;356,00
607,43;278,00
608,00;333,00
608,57;178,00
609,15;199,00
609,72;346,00
610,30;300,00
610,87;174,00
611,44;215,00
612,02;315,00
612,59;200,00
613,16;325,00
613,74;304,00
614,31;166,00
614,89;256,00
615,46;290,00
616,03;337,00
616,61;509,00
617,18;275,00
617,75;291,00
618,33;317,00
618,90;394,00
619,47;368,00
620,05;321,00
620,62;282,00
621,19;274,00
621,77;166,00
622,34;158,00
622,91;275,00
623,48;197,00
624,06;232,00
624,63;212,00
625,20;176,00
625,78;289,00
626,35;210,00
626,92;264,00
627,49;299,00
628,07;303,00
628,64;251,00
629,21;219,00
629,78;141,00
630,36;222,00
630,93;213,00
631,50;213,00
632,07;245,00
632,65;241,00
633,22;210,00
633,79;212,00
634,36;105,00
634,93;210,00
635,51;255,00
636,08;153,00
636,65;118,00
637,22;175,00
637,79;199,00
638,37;279,00
638,94;154,00
639,51;147,00
640,08;170,00
640,65;178,00
641,22;218,00
641,80;268,00
642,37;315,00
642,94;287,00
643,51;173,00
644,08;171,00
644,65;247,00
645,22;269,00
645,80;376,00
646,37;238,00
646,94;279,00
647,51;316,00
648,08;391,00
648,65;444,00
649,22;436,00
649,79;548,00
650,36;504,00
650,93;442,00
651,51;113,00
652,08;530,00
652,65;568,00
653,22;413,00
653,79;496,00
654,36;601,00
654,93;739,00
655,50;1096,0
656,07;1977,0
656,64;2659,0
657,21;2776,0
657,78;2873,0
658,35;2824,0
658,92;2732,0
659,49;2610,0
660,06;2035,0
660,63;1397,0
661,20;1203,0
661,77;1136,0
662,34;1045,0
662,91;961,00
663,48;762,00
664,05;613,00
664,62;605,00
665,19;440,00
665,76;497,00
666,33;487,00
666,90;326,00
667,47;336,00
668,04;299,00
668,61;293,00
669,18;259,00
669,75;174,00
670,32;219,00
670,89;329,00
671,46;343,00
672,03;277,00
672,60;235,00
673,17;233,00
673,74;145,00
674,30;113,00
674,87;300,00
675,44;197,00
676,01;302,00
676,58;203,00
677,15;153,00
677,72;262,00
678,29;190,00
678,86;186,00
679,42;184,00
679,99;141,00
680,56;250,00
681,13;136,00
681,70;259,00
682,27;58,000
682,84;124,00
683,40;165,00
683,97;161,00
684,54;179,00
685,11;91,000
685,68;164,00
686,25;108,00
686,81;174,00
687,38;141,00
687,95;-23,000
688,52;81,000
689,09;110,00
689,65;170,00
690,22;132,00
690,79;146,00
691,36;192,00
691,92;181,00
692,49;219,00
693,06;132,00
693,63;166,00
694,20;131,00
694,76;208,00
695,33;282,00
695,90;152,00
696,47;95,000
697,03;140,00
697,60;178,00
698,17;232,00
698,73;236,00
699,30;160,00
699,87;180,00
700,44;214,00
701,00;134,00
701,57;107,00
702,14;253,00
702,70;197,00
703,27;103,00
703,84;128,00
704,40;192,00
704,97;160,00
705,54;257,00
706,10;168,00
706,67;141,00
707,24;95,000
707,80;55,000
708,37;147,00
708,94;113,00
709,50;142,00
710,07;135,00
710,64;130,00
711,20;163,00
711,77;82,000
712,33;213,00
712,90;178,00
713,47;140,00
714,03;105,00
714,60;100,000
715,16;242,00
715,73;153,00
716,30;153,00
716,86;173,00
717,43;254,00
717,99;99,000
718,56;444,00
719,12;81,000
719,69;85,000
720,26;255,00
720,82;91,000
721,39;108,00
721,95;130,00
722,52;236,00
723,08;170,00
723,65;30,000
724,21;205,00
724,78;140,00
725,34;125,00
725,91;156,00
726,47;250,00
727,04;122,00
727,60;79,000
728,17;25,000
728,73;127,00
729,30;113,00
729,86;68,000
730,43;24,000
730,99;192,00
731,56;139,00
732,12;23,000
732,68;139,00
733,25;59,000
733,81;104,00
734,38;109,00
734,94;124,00
735,51;89,000
736,07;111,00
736,63;184,00
737,20;128,00
737,76;108,00
738,33;138,00
738,89;65,000
739,46;132,00
740,02;100,000
740,58;138,00
741,15;30,000
741,71;104,00
742,27;77,000
742,84;365,00
743,40;285,00
743,97;445,00
744,53;433,00
745,09;341,00
745,66;397,00
746,22;528,00
746,78;444,00
747,35;617,00
747,91;550,00
748,47;498,00
749,04;455,00
749,60;457,00
750,16;322,00
750,72;223,00
751,29;153,00
751,85;113,00
752,41;106,00
752,98;62,000
753,54;88,000
754,10;55,000
754,66;230,00
755,23;44,000
755,79;153,00
756,35;150,00
756,91;54,000
757,48;76,000
758,04;57,000
758,60;156,00
759,16;90,000
759,73;137,00
760,29;97,000
760,85;-8,0000
761,41;-30,000
761,98;54,000
762,54;102,00
763,10;45,000
763,66;47,000
764,22;89,000
764,79;68,000
765,35;52,000
765,91;101,00
766,47;131,00
767,03;46,000
767,59;95,000
768,16;-61,000
768,72;3,0000
769,28;142,00
769,84;163,00
770,40;-69,000
770,96;100,000
771,52;121,00
772,09;134,00
772,65;119,00
773,21;60,000
773,77;33,000
774,33;55,000
774,89;-10,0000
775,45;45,000
776,01;148,00
776,57;220,00
777,13;628,00
777,70;776,00
778,26;721,00
778,82;794,00
779,38;607,00
779,94;647,00
780,50;721,00
781,06;536,00
781,62;189,00
782,18;27,000
782,74;225,00
783,30;45,000
783,86;108,00
784,42;93,000
784,98;32,000
785,54;141,00
786,10;6,0000
786,66;28,000
787,22;61,000
787,78;45,000
788,34;85,000
788,90;118,00
789,46;164,00
790,02;-32,000
790,58;7,0000
791,14;39,000
791,70;124,00
792,26;28,000
792,82;43,000
793,38;32,000
793,94;163,00
794,50;173,00
795,06;180,00
795,62;123,00
796,17;66,000
796,73;122,00
797,29;112,00
797,85;164,00
798,41;17,000
798,97;56,000
799,53;62,000
800,09;24,000
800,65;124,00
801,21;126,00
801,76;22,000
802,32;46,000
802,88;43,000
803,44;37,000
804,00;-12,000
804,56;45,000
805,12;51,000
805,67;-12,000
806,23;20,000
806,79;66,000
807,35;89,000
807,91;-10,0000
808,46;41,000
809,02;-18,000
809,58;152,00
810,14;-4,0000
810,70;109,00
811,26;19,000
811,81;25,000
812,37;4,0000
812,93;10,0000
813,49;-1,0000
814,04;-21,000
814,60;96,000
815,16;67,000
815,72;135,00
816,27;136,00
816,83;0
817,39;36,000
817,95;131,00
818,50;201,00
819,06;192,00
819,62;112,00
820,18;241,00
820,73;279,00
821,29;365,00
821,85;390,00
822,40;370,00
822,96;323,00
823,52;313,00
824,07;311,00
824,63;269,00
825,19;292,00
825,74;242,00
826,30;212,00
826,86;135,00
827,41;-9,0000
827,97;113,00
828,53;19,000
829,08;31,000
829,64;14,000
830,20;114,00
830,75;35,000
831,31;-2,0000
831,86;32,000
832,42;2,0000
832,98;31,000
833,53;-31,000
834,09;-3,0000
834,64;164,00
835,20;69,000
835,76;41,000
836,31;11,000
836,87;50,000
837,42;-11,000
837,98;154,00
838,53;114,00
839,09;116,00
839,64;35,000
840,20;60,000
840,75;48,000
841,31;99,000
841,87;7,0000
842,42;-84,000
842,98;41,000
843,53;17,000
844,09;107,00
844,64;133,00
845,20;162,00
845,75;258,00
846,31;98,000
846,86;150,00
847,41;169,00
847,97;202,00
848,52;164,00
849,08;29,000
849,63;45,000
850,19;78,000
850,74;-46,000
851,30;39,000
851,85;-11,000
852,41;63,000
852,96;76,000
853,51;74,000
854,07;16,000
854,62;58,000
855,18;-48,000
855,73;-12,000
856,28;8,0000
856,84;41,000
857,39;153,00
857,95;63,000
858,50;114,00
859,05;4,0000
859,61;65,000
860,16;83,000
860,71;83,000
861,27;68,000
861,82;137,00
862,37;148,00
862,93;77,000
863,48;145,00
864,03;167,00
864,59;123,00
865,14;69,000
865,69;251,00
866,25;110,00
866,80;667,00
867,35;157,00
867,90;180,00
868,46;223,00
869,01;259,00
869,56;347,00
870,12;272,00
870,67;354,00
871,22;362,00
871,77;275,00
872,33;267,00
872,88;128,00
873,43;188,00
873,98;200,00
874,54;136,00
875,09;176,00
875,64;30,000
876,19;19,000
876,74;-13,000
877,30;-45,000
877,85;38,000
878,40;12,000
878,95;15,000
879,50;49,000
880,06;-45,000
880,61;-11,000
881,16;100,000
881,71;-50,000
882,26;-17,000
882,81;-76,000
883,37;84,000
883,92;4,0000
884,47;-6,0000
885,02;61,000
885,57;38,000
886,12;-18,000
886,67;-20,000
887,22;16,000
887,78;28,000
888,33;16,000
888,88;47,000
889,43;66,000
889,98;63,000
890,53;-241,00
891,08;20,000
891,63;75,000
892,18;75,000
892,73;70,000
893,28;-10,0000
893,83;29,000
894,38;97,000
894,93;-52,000
895,48;65,000
896,03;48,000
896,59;-114,00
897,14;39,000
897,69;-47,000
898,24;-19,000
898,79;-52,000
899,34;-7,0000
899,89;53,000
900,44;17,000
900,99;32,000
901,53;61,000
902,08;28,000
902,63;15,000
903,18;1,0000
903,73;-79,000
904,28;90,000
904,83;55,000
905,38;164,00
905,93;68,000
906,48;206,00
907,03;102,00
907,58;87,000
908,13;106,00
908,68;96,000
909,23;115,00
909,78;63,000
910,32;-37,000
910,87;-27,000
911,42;51,000
911,97;73,000
912,52;-13,000
913,07;91,000
913,62;-9,0000
914,17;23,000
914,71;165,00
915,26;60,000
915,81;-6,0000
916,36;-37,000
916,91;25,000
917,46;33,000
918,00;53,000
918,55;93,000
919,10;111,00
919,65;65,000
920,20;73,000
920,74;76,000
921,29;1,0000
921,84;101,00
922,39;50,000
922,94;-21,000
923,48;37,000
924,03;16,000
924,58;-32,000
925,13;42,000
925,67;99,000
926,22;26,000
926,77;122,00
927,32;128,00
927,86;85,000
928,41;128,00
928,96;132,00
929,50;190,00
930,05;27,000
930,60;57,000
931,15;38,000
931,69;39,000
932,24;28,000
932,79;30,000
933,33;-6,0000
933,88;39,000
934,43;7,0000
934,97;-14,000
935,52;17,000
936,07;-29,000
936,61;39,000
937,16;3,0000
937,71;-6,0000
938,25;60,000
938,80;-14,000
939,34;107,00
939,89;127,00
940,44;34,000
940,98;29,000
941,53;129,00
942,07;59,000
942,62;86,000
943,17;32,000
943,71;39,000
944,26;33,000
944,80;21,000
945,35;-8,0000
945,89;-66,000
946,44;-14,000
946,99;-7,0000
947,53;81,000
948,08;13,000
948,62;58,000
949,17;64,000
949,71;93,000
950,26;40,000
950,80;-12,000
951,35;42,000
951,89;12,000
952,44;-11,000
952,98;-34,000
953,53;40,000
954,07;58,000
954,62;80,000
955,16;-55,000
955,71;-43,000
956,25;55,000
956,79;5,0000
957,34;13,000
957,88;150,00
958,43;10,0000
958,97;60,000
959,52;9,0000
960,06;19,000
960,60;27,000
961,15;-98,000
961,69;45,000
962,24;63,000
962,78;-77,000
963,32;45,000
963,87;0
964,41;83,000
964,96;-23,000
965,50;72,000
966,04;38,000
966,59;59,000
967,13;45,000
967,67;18,000
968,22;10,0000
968,76;20,000
969,30;46,000
969,85;-98,000
970,39;17,000
970,93;31,000
971,47;85,000
972,02;50,000
972,56;10,0000
973,10;-69,000
973,65;12,000
974,19;1,0000
974,73;68,000
975,27;-10,0000
975,82;59,000
976,36;86,000
976,90;75,000
977,44;-49,000
977,99;50,000
978,53;-32,000
979,07;8,0000
979,61;50,000
980,16;-20,000
980,70;-22,000
981,24;-62,000
981,78;-27,000
982,32;-36,000
982,87;72,000
983,41;-35,000
983,95;58,000
984,49;14,000
985,03;-43,000
985,57;-1,0000
986,12;124,00
986,66;-28,000
987,20;26,000
987,74;7,0000
988,28;36,000
988,82;17,000
989,36;25,000
989,91;-132,00
990,45;-32,000
990,99;8,0000
991,53;-52,000
992,07;87,000
992,61;29,000
993,15;-66,000
993,69;54,000
994,23;-42,000
994,77;-57,000
995,31;16,000
995,86;-62,000
996,40;105,00
996,94;28,000
997,48;-50,000
998,02;20,000
998,56;14,000
999,10;41,000
999,64;-23,000
1000,18;17,000
1000,72;71,000
1001,26;-7,0000
1001,80;2,0000
1002,34;-55,000
1002,88;-71,000
1003,42;0
1003,96;-41,000
1004,50;-26,000
1005,04;-29,000
1005,58;53,000
1006,12;2,0000
1006,66;109,00
1007,20;49,000
1007,73;70,000
1008,27;-31,000
1008,81;-104,00
1009,35;33,000
1009,89;12,000
1010,43;42,000
1010,97;47,000
1011,51;57,000
1012,05;-10,0000
1012,59;49,000
1013,13;23,000
1013,66;-78,000
1014,20;82,000
1014,74;41,000
1015,28;0
1015,82;14,000
1016,36;59,000
1016,90;15,000
1017,43;-4,0000
1017,97;8,0000
1018,51;-47,000
1019,05;-4,0000
1019,59;-82,000
1020,13;-8,0000
1020,66;128,00
1021,20;21,000
1021,74;28,000
1022,28;-17,000
1022,81;16,000
1023,35;89,000
1023,89;49,000
1024,43;16,000
1024,97;-93,000
1025,50;-13,000
1026,04;8,0000
1026,58;49,000
1027,12;64,000
1027,65;26,000
1028,19;9,0000
1028,73;1,0000
1029,26;21,000
1029,80;-53,000
1030,34;11,000
1030,88;108,00
1031,41;39,000
1031,95;38,000
1032,49;1,0000
1033,02;-14,000
1033,56;109,00
1034,10;20,000
1034,63;-63,000
1035,17;-2,0000
1035,71;-133,00
1036,24;-22,000
1036,78;-59,000
1037,32;-68,000
1037,85;99,000
1038,39;56,000
1038,92;-28,000
1039,46;-35,000
1040,00;79,000
1040,53;28,000
1041,07;47,000
1041,60;-4,0000
1042,14;19,000
1042,68;-56,000
1043,21;-74,000
1043,75;49,000
1044,28;48,000
1044,82;21,000
1045,35;38,000
1045,89;83,000
1046,42;43,000
1046,96;-26,000
1047,49;-23,000
1048,03;-18,000
1048,57;-3,0000
1049,10;31,000
1049,64;-11,000
1050,17;79,000
1050,70;-14,000
1051,24;35,000
1051,77;43,000
1052,31;-18,000
1052,84;-9,0000
1053,38;-49,000
1053,91;78,000
1054,45;-4,0000
1054,98;150,00
1055,52;-16,000
1056,05;-37,000
1056,59;3,0000
1057,12;-26,000
1057,65;7,0000
1058,19;-6,0000
1058,72;15,000
1059,26;-8,0000
1059,79;4,0000
1060,32;35,000
1060,86;86,000
1061,39;-22,000
1061,93;4,0000
1062,46;102,00
1062,99;-17,000
1063,53;-28,000
1064,06;133,00
1064,59;5,0000
1065,13;26,000
1065,66;28,000
1066,19;52,000
1066,73;-61,000
1067,26;27,000
1067,79;5,0000
1068,33;43,000
1068,86;91,000
1069,39;-50,000
1069,92;21,000
1070,46;86,000
1070,99;-55,000
1071,52;55,000
1072,05;-64,000
1072,59;7,0000
1073,12;-76,000
1073,65;1,0000
1074,18;-19,000
1074,72;-86,000
1075,25;-20,000
1075,78;0
1076,31;80,000
1076,85;22,000
1077,38;-73,000
1077,91;-55,000
1078,44;-12,000
1078,97;-43,000
1079,51;12,000
1080,04;-11,000
1080,57;-3,0000
1081,10;71,000
1081,63;-62,000
1082,16;-60,000
1082,70;10,0000
1083,23;26,000
1083,76;-24,000
1084,29;-31,000
1084,82;-29,000
1085,35;75,000
1085,88;12,000
1086,41;-96,000
1086,94;-56,000
1087,48;-40,000
1088,01;4,0000
1088,54;-53,000
1089,07;6,0000
1089,60;28,000
1090,13;-93,000
1090,66;-38,000
1091,19;90,000
1091,72;-9,0000
1092,25;14,000
1092,78;-11,000
1093,31;32,000
1093,84;21,000
1094,37;-7,0000
1094,90;105,00
1095,43;-44,000
1095,96;-48,000
1096,49;-165,00
1097,02;-4,0000
1097,55;24,000
1098,08;58,000
1098,61;-84,000
1099,14;7,0000
1099,67;82,000
1100,20;83,000
