M- 30 del, 5, sur
Integration time: 5000 ms
Average: 1 scans
Nr of pixels used for smoothing: 0
Data measured with spectrometer serial number: 0604021S1
Wave   ;Sample
[nm]   ;[counts]
173,70;76,000
174,30;34,000
174,90;44,000
175,50;104,00
176,10;27,000
176,70;20,000
177,30;66,000
177,90;23,000
178,50;71,000
179,10;19,000
179,70;64,000
180,30;71,000
180,89;-6,0000
181,49;67,000
182,09;-23,000
182,69;141,00
183,29;-5,0000
183,89;14,000
184,49;53,000
185,09;167,00
185,69;-15,000
186,29;18,000
186,89;-32,000
187,48;60,000
188,08;-7,0000
188,68;-10,0000
189,28;-29,000
189,88;115,00
190,48;-74,000
191,08;-80,000
191,68;38,000
192,28;64,000
192,87;6,0000
193,47;73,000
194,07;-29,000
194,67;-30,000
195,27;42,000
195,87;-4,0000
196,47;-71,000
197,06;19,000
197,66;66,000
198,26;-22,000
198,86;39,000
199,46;25,000
200,06;16,000
200,66;74,000
201,25;128,00
201,85;-33,000
202,45;102,00
203,05;169,00
203,65;-60,000
204,24;-7,0000
204,84;-63,000
205,44;156,00
206,04;99,000
206,64;85,000
207,24;-4,0000
207,83;-25,000
208,43;8,0000
209,03;-120,00
209,63;44,000
210,22;45,000
210,82;28,000
211,42;-24,000
212,02;12,000
212,62;29,000
213,21;-117,00
213,81;2,0000
214,41;-49,000
215,01;-2,0000
215,60;22,000
216,20;19,000
216,80;19,000
217,40;131,00
218,00;-41,000
218,59;16,000
219,19;-59,000
219,79;-67,000
220,38;2,0000
220,98;45,000
221,58;-16,000
222,18;51,000
222,77;14,000
223,37;-46,000
223,97;33,000
224,57;-26,000
225,16;6,0000
225,76;-10,0000
226,36;-37,000
226,95;-85,000
227,55;112,00
228,15;-24,000
228,75;37,000
229,34;-21,000
229,94;-40,000
230,54;-92,000
231,13;38,000
231,73;-33,000
232,33;2,0000
232,92;-25,000
233,52;56,000
234,12;-32,000
234,71;70,000
235,31;51,000
235,91;71,000
236,50;37,000
237,10;47,000
237,70;64,000
238,29;71,000
238,89;-23,000
239,49;-7,0000
240,08;-22,000
240,68;23,000
241,28;57,000
241,87;-12,000
242,47;-4,0000
243,06;8,0000
243,66;94,000
244,26;-3,0000
244,85;-17,000
245,45;-20,000
246,05;23,000
246,64;26,000
247,24;26,000
247,83;104,00
248,43;38,000
249,03;66,000
249,62;-8,0000
250,22;64,000
250,81;-144,00
251,41;18,000
252,01;45,000
252,60;-3,0000
253,20;87,000
253,79;52,000
254,39;-29,000
254,98;86,000
255,58;116,00
256,18;39,000
256,77;39,000
257,37;18,000
257,96;-107,00
258,56;-10,0000
259,15;97,000
259,75;-27,000
260,34;10,0000
260,94;-25,000
261,53;-58,000
262,13;36,000
262,73;13,000
263,32;-6,0000
263,92;62,000
264,51;78,000
265,11;-37,000
265,70;63,000
266,30;35,000
266,89;15,000
267,49;15,000
268,08;26,000
268,68;75,000
269,27;33,000
269,87;35,000
270,46;-31,000
271,06;38,000
271,65;-41,000
272,25;-9,0000
272,84;98,000
273,44;8,0000
274,03;3,0000
274,62;33,000
275,22;-35,000
275,81;1,0000
276,41;115,00
277,00;-99,000
277,60;22,000
278,19;101,00
278,79;-6,0000
279,38;70,000
279,98;92,000
280,57;-2,0000
281,16;13,000
281,76;-22,000
282,35;-73,000
282,95;-29,000
283,54;24,000
284,14;-62,000
284,73;-33,000
285,32;14,000
285,92;50,000
286,51;-68,000
287,11;7,0000
287,70;24,000
288,29;-54,000
288,89;10,0000
289,48;63,000
290,08;-6,0000
290,67;-40,000
291,26;17,000
291,86;32,000
292,45;-34,000
293,04;-24,000
293,64;22,000
294,23;-44,000
294,83;-21,000
295,42;47,000
296,01;-12,000
296,61;15,000
297,20;56,000
297,79;52,000
298,39;65,000
298,98;16,000
299,57;22,000
300,17;-4,0000
300,76;-35,000
301,35;58,000
301,95;30,000
302,54;-4,0000
303,13;34,000
303,73;65,000
304,32;50,000
304,91;9,0000
305,51;-27,000
306,10;60,000
306,69;106,00
307,28;28,000
307,88;-21,000
308,47;62,000
309,06;45,000
309,66;8,0000
310,25;46,000
310,84;93,000
311,43;210,00
312,03;231,00
312,62;282,00
313,21;195,00
313,81;170,00
314,40;380,00
314,99;487,00
315,58;591,00
316,18;583,00
316,77;538,00
317,36;398,00
317,95;451,00
318,54;391,00
319,14;229,00
319,73;65,000
320,32;9,0000
320,91;35,000
321,51;-33,000
322,10;14,000
322,69;1,0000
323,28;22,000
323,87;37,000
324,47;14,000
325,06;19,000
325,65;57,000
326,24;198,00
326,83;102,00
327,43;202,00
328,02;253,00
328,61;181,00
329,20;151,00
329,79;214,00
330,39;227,00
330,98;349,00
331,57;195,00
332,16;315,00
332,75;360,00
333,34;343,00
333,93;377,00
334,53;476,00
335,12;871,00
335,71;1493,0
336,30;2731,0
336,89;3844,0
337,48;3801,0
338,07;3743,0
338,67;3357,0
339,26;3254,0
339,85;2723,0
340,44;1606,0
341,03;436,00
341,62;275,00
342,21;264,00
342,80;99,000
343,39;158,00
343,99;219,00
344,58;183,00
345,17;247,00
345,76;189,00
346,35;238,00
346,94;355,00
347,53;340,00
348,12;250,00
348,71;382,00
349,30;308,00
349,89;595,00
350,48;588,00
351,07;755,00
351,66;925,00
352,26;1186,0
352,85;1879,0
353,44;2276,0
354,03;2384,0
354,62;2356,0
355,21;2558,0
355,80;2964,0
356,39;3854,0
356,98;5356,0
357,57;5678,0
358,16;5458,0
358,75;5207,0
359,34;4839,0
359,93;4518,0
360,52;3378,0
361,11;1926,0
361,70;553,00
362,29;444,00
362,88;234,00
363,47;427,00
364,06;412,00
364,65;489,00
365,24;477,00
365,83;545,00
366,42;588,00
367,01;597,00
367,60;489,00
368,19;755,00
368,78;717,00
369,37;852,00
369,95;1141,0
370,54;1367,0
371,13;1357,0
371,72;1278,0
372,31;1389,0
372,90;1380,0
373,49;1529,0
374,08;1883,0
374,67;2222,0
375,26;2706,0
375,85;2607,0
376,44;2746,0
377,03;2611,0
377,61;2491,0
378,20;2390,0
378,79;2197,0
379,38;2373,0
379,97;3208,0
380,56;3345,0
381,15;3361,0
381,74;3231,0
382,33;3039,0
382,91;2832,0
383,50;2190,0
384,09;1419,0
384,68;1051,0
385,27;1127,0
385,86;1208,0
386,45;1371,0
387,03;1491,0
387,62;1459,0
388,21;1530,0
388,80;1552,0
389,39;1478,0
389,98;1434,0
390,57;1412,0
391,15;1441,0
391,74;1310,0
392,33;1172,0
392,92;1066,0
393,51;1339,0
394,09;1482,0
394,68;1265,0
395,27;1142,0
395,86;1038,0
396,45;1048,0
397,03;1036,0
397,62;990,00
398,21;1028,0
398,80;1374,0
399,39;1638,0
399,97;1719,0
400,56;1707,0
401,15;1624,0
401,74;1525,0
402,32;1490,0
402,91;1260,0
403,50;1117,0
404,09;960,00
404,67;1292,0
405,26;1648,0
405,85;1709,0
406,44;1795,0
407,02;1900,0
407,61;1892,0
408,20;1613,0
408,78;1445,0
409,37;1161,0
409,96;1048,0
410,55;1060,0
411,13;991,00
411,72;1084,0
412,31;967,00
412,89;1073,0
413,48;1067,0
414,07;1278,0
414,65;1249,0
415,24;1268,0
415,83;1233,0
416,42;1212,0
417,00;1228,0
417,59;1223,0
418,18;1220,0
418,76;1274,0
419,35;1498,0
419,94;1553,0
420,52;1545,0
421,11;1466,0
421,69;1465,0
422,28;1500,0
422,87;1354,0
423,45;1232,0
424,04;1222,0
424,63;1110,0
425,21;1133,0
425,80;1271,0
426,38;1567,0
426,97;1551,0
427,56;1624,0
428,14;1455,0
428,73;1414,0
429,31;1342,0
429,90;1177,0
430,49;928,00
431,07;786,00
431,66;744,00
432,24;661,00
432,83;878,00
433,42;958,00
434,00;1276,0
434,59;1254,0
435,17;1229,0
435,76;1282,0
436,34;1236,0
436,93;1211,0
437,51;1195,0
438,10;806,00
438,69;744,00
439,27;632,00
439,86;493,00
440,44;637,00
441,03;743,00
441,61;641,00
442,20;636,00
442,78;621,00
443,37;543,00
443,95;667,00
444,54;722,00
445,12;625,00
445,71;612,00
446,29;656,00
446,88;519,00
447,46;797,00
448,05;689,00
448,63;788,00
449,22;623,00
449,80;627,00
450,39;624,00
450,97;547,00
451,56;543,00
452,14;410,00
452,72;297,00
453,31;419,00
453,89;500,00
454,48;464,00
455,06;579,00
455,65;453,00
456,23;504,00
456,81;558,00
457,40;647,00
457,98;532,00
458,57;635,00
459,15;634,00
459,74;583,00
460,32;572,00
460,90;526,00
461,49;499,00
462,07;576,00
462,66;568,00
463,24;652,00
463,82;630,00
464,41;638,00
464,99;663,00
465,57;773,00
466,16;702,00
466,74;713,00
467,33;674,00
467,91;527,00
468,49;605,00
469,08;533,00
469,66;506,00
470,24;392,00
470,83;491,00
471,41;515,00
471,99;411,00
472,58;426,00
473,16;393,00
473,74;448,00
474,33;324,00
474,91;262,00
475,49;314,00
476,08;425,00
476,66;542,00
477,24;562,00
477,82;460,00
478,41;468,00
478,99;442,00
479,57;547,00
480,16;501,00
480,74;582,00
481,32;559,00
481,90;655,00
482,49;747,00
483,07;682,00
483,65;661,00
484,23;653,00
484,82;855,00
485,40;865,00
485,98;916,00
486,56;899,00
487,15;933,00
487,73;1115,0
488,31;947,00
488,89;932,00
489,47;969,00
490,06;843,00
490,64;702,00
491,22;706,00
491,80;786,00
492,39;554,00
492,97;571,00
493,55;537,00
494,13;549,00
494,71;443,00
495,29;376,00
495,88;438,00
496,46;354,00
497,04;591,00
497,62;354,00
498,20;441,00
498,78;317,00
499,37;385,00
499,95;563,00
500,53;750,00
501,11;585,00
501,69;574,00
502,27;583,00
502,85;580,00
503,44;567,00
504,02;531,00
504,60;355,00
505,18;378,00
505,76;360,00
506,34;363,00
506,92;267,00
507,50;313,00
508,08;320,00
508,67;225,00
509,25;335,00
509,83;188,00
510,41;311,00
510,99;249,00
511,57;403,00
512,15;325,00
512,73;250,00
513,31;307,00
513,89;247,00
514,47;262,00
515,05;243,00
515,63;313,00
516,21;206,00
516,79;320,00
517,38;265,00
517,96;264,00
518,54;285,00
519,12;299,00
519,70;397,00
520,28;182,00
520,86;301,00
521,44;307,00
522,02;302,00
522,60;206,00
523,18;190,00
523,76;274,00
524,34;337,00
524,92;273,00
525,50;221,00
526,08;272,00
526,66;237,00
527,24;278,00
527,82;183,00
528,39;280,00
528,97;283,00
529,55;194,00
530,13;244,00
530,71;230,00
531,29;270,00
531,87;243,00
532,45;374,00
533,03;352,00
533,61;274,00
534,19;335,00
534,77;181,00
535,35;163,00
535,93;250,00
536,51;295,00
537,08;128,00
537,66;259,00
538,24;257,00
538,82;260,00
539,40;255,00
539,98;227,00
540,56;219,00
541,14;236,00
541,72;376,00
542,29;260,00
542,87;224,00
543,45;214,00
544,03;313,00
544,61;219,00
545,19;398,00
545,77;308,00
546,34;358,00
546,92;292,00
547,50;261,00
548,08;330,00
548,66;226,00
549,23;281,00
549,81;191,00
550,39;312,00
550,97;188,00
551,55;249,00
552,13;269,00
552,70;385,00
553,28;364,00
553,86;269,00
554,44;305,00
555,01;270,00
555,59;210,00
556,17;257,00
556,75;250,00
557,33;251,00
557,90;384,00
558,48;224,00
559,06;209,00
559,64;256,00
560,21;296,00
560,79;222,00
561,37;254,00
561,95;325,00
562,52;269,00
563,10;198,00
563,68;340,00
564,25;336,00
564,83;266,00
565,41;303,00
565,99;267,00
566,56;291,00
567,14;300,00
567,72;409,00
568,29;376,00
568,87;404,00
569,45;454,00
570,02;469,00
570,60;321,00
571,18;488,00
571,75;354,00
572,33;321,00
572,91;401,00
573,48;265,00
574,06;271,00
574,64;265,00
575,21;224,00
575,79;243,00
576,37;341,00
576,94;303,00
577,52;247,00
578,09;341,00
578,67;240,00
579,25;306,00
579,82;266,00
580,40;294,00
580,97;243,00
581,55;220,00
582,13;388,00
582,70;338,00
583,28;313,00
583,85;361,00
584,43;183,00
585,01;216,00
585,58;291,00
586,16;369,00
586,73;206,00
587,31;281,00
587,88;273,00
588,46;266,00
589,03;410,00
589,61;316,00
590,18;258,00
590,76;202,00
591,34;294,00
591,91;146,00
592,49;363,00
593,06;350,00
593,64;258,00
594,21;322,00
594,79;237,00
595,36;286,00
595,94;244,00
596,51;314,00
597,09;230,00
597,66;258,00
598,24;340,00
598,81;300,00
599,38;115,00
599,96;359,00
600,53;219,00
601,11;234,00
601,68;226,00
602,26;243,00
602,83;286,00
603,41;236,00
603,98;268,00
604,56;286,00
605,13;226,00
605,70;151,00
606,28;270,00
606,85;279,00
607,43;165,00
608,00;183,00
608,57;215,00
609,15;239,00
609,72;241,00
610,30;159,00
610,87;252,00
611,44;256,00
612,02;287,00
612,59;107,00
613,16;265,00
613,74;234,00
614,31;182,00
614,89;235,00
615,46;135,00
616,03;284,00
616,61;284,00
617,18;233,00
617,75;247,00
618,33;234,00
618,90;302,00
619,47;281,00
620,05;264,00
620,62;193,00
621,19;148,00
621,77;269,00
622,34;222,00
622,91;164,00
623,48;220,00
624,06;194,00
624,63;304,00
625,20;190,00
625,78;139,00
626,35;159,00
626,92;273,00
627,49;178,00
628,07;272,00
628,64;183,00
629,21;78,000
629,78;208,00
630,36;244,00
630,93;299,00
631,50;337,00
632,07;290,00
632,65;164,00
633,22;173,00
633,79;210,00
634,36;109,00
634,93;179,00
635,51;285,00
636,08;79,000
636,65;221,00
637,22;169,00
637,79;228,00
638,37;182,00
638,94;229,00
639,51;183,00
640,08;252,00
640,65;305,00
641,22;119,00
641,80;194,00
642,37;170,00
642,94;206,00
643,51;312,00
644,08;249,00
644,65;290,00
645,22;205,00
645,80;254,00
646,37;365,00
646,94;207,00
647,51;274,00
648,08;246,00
648,65;355,00
649,22;409,00
649,79;413,00
650,36;413,00
650,93;289,00
651,51;51,000
652,08;413,00
652,65;507,00
653,22;461,00
653,79;538,00
654,36;604,00
654,93;730,00
655,50;907,00
656,07;1293,0
656,64;1419,0
657,21;1646,0
657,78;1853,0
658,35;1851,0
658,92;1561,0
659,49;1505,0
660,06;1267,0
660,63;1029,0
661,20;1042,0
661,77;979,00
662,34;947,00
662,91;733,00
663,48;643,00
664,05;570,00
664,62;550,00
665,19;374,00
665,76;468,00
666,33;299,00
666,90;329,00
667,47;375,00
668,04;189,00
668,61;293,00
669,18;278,00
669,75;308,00
670,32;344,00
670,89;381,00
671,46;196,00
672,03;336,00
672,60;261,00
673,17;307,00
673,74;286,00
674,30;183,00
674,87;108,00
675,44;264,00
676,01;289,00
676,58;241,00
677,15;203,00
677,72;154,00
678,29;235,00
678,86;232,00
679,42;261,00
679,99;211,00
680,56;94,000
681,13;111,00
681,70;82,000
682,27;121,00
682,84;154,00
683,40;180,00
683,97;152,00
684,54;126,00
685,11;155,00
685,68;179,00
686,25;78,000
686,81;63,000
687,38;147,00
687,95;155,00
688,52;46,000
689,09;116,00
689,65;109,00
690,22;119,00
690,79;142,00
691,36;178,00
691,92;27,000
692,49;124,00
693,06;37,000
693,63;104,00
694,20;301,00
694,76;180,00
695,33;63,000
695,90;116,00
696,47;218,00
697,03;150,00
697,60;167,00
698,17;202,00
698,73;183,00
699,30;125,00
699,87;149,00
700,44;159,00
701,00;186,00
701,57;154,00
702,14;117,00
702,70;119,00
703,27;132,00
703,84;124,00
704,40;184,00
704,97;81,000
705,54;127,00
706,10;129,00
706,67;154,00
707,24;65,000
707,80;114,00
708,37;144,00
708,94;15,000
709,50;66,000
710,07;38,000
710,64;60,000
711,20;118,00
711,77;78,000
712,33;116,00
712,90;92,000
713,47;60,000
714,03;127,00
714,60;313,00
715,16;165,00
715,73;89,000
716,30;286,00
716,86;196,00
717,43;125,00
717,99;121,00
718,56;141,00
719,12;216,00
719,69;7,0000
720,26;136,00
720,82;0
721,39;4,0000
721,95;68,000
722,52;73,000
723,08;62,000
723,65;282,00
724,21;142,00
724,78;75,000
725,34;132,00
725,91;183,00
726,47;53,000
727,04;102,00
727,60;114,00
728,17;144,00
728,73;168,00
729,30;139,00
729,86;69,000
730,43;-2,0000
730,99;86,000
731,56;111,00
732,12;130,00
732,68;138,00
733,25;112,00
733,81;77,000
734,38;67,000
734,94;126,00
735,51;171,00
736,07;153,00
736,63;171,00
737,20;106,00
737,76;137,00
738,33;96,000
738,89;18,000
739,46;72,000
740,02;9,0000
740,58;74,000
741,15;220,00
741,71;103,00
742,27;143,00
742,84;160,00
743,40;249,00
743,97;244,00
744,53;282,00
745,09;405,00
745,66;275,00
746,22;388,00
746,78;456,00
747,35;463,00
747,91;448,00
748,47;460,00
749,04;395,00
749,60;319,00
750,16;367,00
750,72;285,00
751,29;234,00
751,85;92,000
752,41;114,00
752,98;25,000
753,54;102,00
754,10;118,00
754,66;19,000
755,23;158,00
755,79;23,000
756,35;97,000
756,91;111,00
757,48;122,00
758,04;141,00
758,60;15,000
759,16;143,00
759,73;34,000
760,29;130,00
760,85;32,000
761,41;108,00
761,98;170,00
762,54;75,000
763,10;144,00
763,66;99,000
764,22;31,000
764,79;72,000
765,35;71,000
765,91;7,0000
766,47;128,00
767,03;95,000
767,59;-52,000
768,16;8,0000
768,72;15,000
769,28;91,000
769,84;34,000
770,40;54,000
770,96;22,000
771,52;106,00
772,09;41,000
772,65;103,00
773,21;116,00
773,77;15,000
774,33;166,00
774,89;98,000
775,45;4,0000
776,01;145,00
776,57;100,000
777,13;420,00
777,70;596,00
778,26;501,00
778,82;599,00
779,38;665,00
779,94;594,00
780,50;675,00
781,06;318,00
781,62;65,000
782,18;126,00
782,74;105,00
783,30;50,000
783,86;56,000
784,42;21,000
784,98;31,000
785,54;33,000
786,10;49,000
786,66;70,000
787,22;-50,000
787,78;68,000
788,34;149,00
788,90;72,000
789,46;44,000
790,02;7,0000
790,58;132,00
791,14;-797,00
791,70;57,000
792,26;-94,000
792,82;130,00
793,38;14,000
793,94;25,000
794,50;59,000
795,06;61,000
795,62;129,00
796,17;44,000
796,73;91,000
797,29;42,000
797,85;93,000
798,41;97,000
798,97;-17,000
799,53;67,000
800,09;83,000
800,65;-1,0000
801,21;105,00
801,76;49,000
802,32;1,0000
802,88;107,00
803,44;-38,000
804,00;118,00
804,56;126,00
805,12;36,000
805,67;34,000
806,23;144,00
806,79;26,000
807,35;62,000
807,91;-15,000
808,46;104,00
809,02;-51,000
809,58;24,000
810,14;-92,000
810,70;3,0000
811,26;83,000
811,81;16,000
812,37;-87,000
812,93;52,000
813,49;1,0000
814,04;-39,000
814,60;-4,0000
815,16;144,00
815,72;45,000
816,27;-93,000
816,83;82,000
817,39;20,000
817,95;99,000
818,50;65,000
819,06;212,00
819,62;239,00
820,18;173,00
820,73;185,00
821,29;206,00
821,85;307,00
822,40;405,00
822,96;307,00
823,52;309,00
824,07;271,00
824,63;295,00
825,19;201,00
825,74;188,00
826,30;219,00
826,86;60,000
827,41;32,000
827,97;20,000
828,53;-6,0000
829,08;-31,000
829,64;91,000
830,20;146,00
830,75;36,000
831,31;6,0000
831,86;54,000
832,42;-26,000
832,98;69,000
833,53;-59,000
834,09;-55,000
834,64;34,000
835,20;87,000
835,76;-15,000
836,31;26,000
836,87;-41,000
837,42;-1,0000
837,98;66,000
838,53;-44,000
839,09;48,000
839,64;22,000
840,20;1,0000
840,75;47,000
841,31;-11,000
841,87;64,000
842,42;20,000
842,98;54,000
843,53;44,000
844,09;86,000
844,64;72,000
845,20;113,00
845,75;116,00
846,31;150,00
846,86;136,00
847,41;97,000
847,97;103,00
848,52;129,00
849,08;-33,000
849,63;58,000
850,19;2,0000
850,74;48,000
851,30;26,000
851,85;-19,000
852,41;79,000
852,96;66,000
853,51;111,00
854,07;-58,000
854,62;7,0000
855,18;-17,000
855,73;2,0000
856,28;205,00
856,84;109,00
857,39;14,000
857,95;-13,000
858,50;-7,0000
859,05;-1,0000
859,61;-26,000
860,16;-39,000
860,71;62,000
861,27;45,000
861,82;114,00
862,37;112,00
862,93;35,000
863,48;146,00
864,03;54,000
864,59;49,000
865,14;153,00
865,69;25,000
866,25;111,00
866,80;4,0000
867,35;148,00
867,90;158,00
868,46;238,00
869,01;310,00
869,56;302,00
870,12;275,00
870,67;318,00
871,22;232,00
871,77;226,00
872,33;215,00
872,88;72,000
873,43;252,00
873,98;109,00
874,54;-17,000
875,09;97,000
875,64;144,00
876,19;-7,0000
876,74;-13,000
877,30;85,000
877,85;21,000
878,40;15,000
878,95;3,0000
879,50;5,0000
880,06;37,000
880,61;70,000
881,16;69,000
881,71;-43,000
882,26;36,000
882,81;85,000
883,37;-45,000
883,92;-7,0000
884,47;-26,000
885,02;-45,000
885,57;-14,000
886,12;64,000
886,67;-1,0000
887,22;-64,000
887,78;28,000
888,33;-17,000
888,88;90,000
889,43;54,000
889,98;56,000
890,53;-61,000
891,08;78,000
891,63;-46,000
892,18;-150,00
892,73;81,000
893,28;37,000
893,83;9,0000
894,38;46,000
894,93;20,000
895,48;-22,000
896,03;58,000
896,59;54,000
897,14;24,000
897,69;41,000
898,24;20,000
898,79;101,00
899,34;30,000
899,89;23,000
900,44;-13,000
900,99;-29,000
901,53;28,000
902,08;11,000
902,63;21,000
903,18;38,000
903,73;0
904,28;76,000
904,83;4,0000
905,38;17,000
905,93;114,00
906,48;9,0000
907,03;179,00
907,58;7,0000
908,13;51,000
908,68;114,00
909,23;56,000
909,78;-34,000
910,32;86,000
910,87;8,0000
911,42;-22,000
911,97;21,000
912,52;11,000
913,07;-5,0000
913,62;90,000
914,17;3,0000
914,71;72,000
915,26;-50,000
915,81;25,000
916,36;141,00
916,91;10,0000
917,46;35,000
918,00;42,000
918,55;-50,000
919,10;28,000
919,65;84,000
920,20;38,000
920,74;-60,000
921,29;20,000
921,84;6,0000
922,39;18,000
922,94;21,000
923,48;15,000
924,03;42,000
924,58;-48,000
925,13;33,000
925,67;102,00
926,22;76,000
926,77;32,000
927,32;8,0000
927,86;47,000
928,41;6,0000
928,96;80,000
929,50;96,000
930,05;8,0000
930,60;-4,0000
931,15;-2,0000
931,69;-112,00
932,24;14,000
932,79;-134,00
933,33;83,000
933,88;62,000
934,43;95,000
934,97;-43,000
935,52;14,000
936,07;98,000
936,61;-6,0000
937,16;99,000
937,71;-53,000
938,25;1,0000
938,80;54,000
939,34;11,000
939,89;52,000
940,44;93,000
940,98;46,000
941,53;96,000
942,07;58,000
942,62;71,000
943,17;-13,000
943,71;90,000
944,26;-87,000
944,80;-26,000
945,35;42,000
945,89;210,00
946,44;71,000
946,99;-94,000
947,53;20,000
948,08;-44,000
948,62;57,000
949,17;118,00
949,71;42,000
950,26;-20,000
950,80;32,000
951,35;105,00
951,89;15,000
952,44;101,00
952,98;28,000
953,53;-31,000
954,07;24,000
954,62;-49,000
955,16;35,000
955,71;46,000
956,25;-67,000
956,79;0
957,34;54,000
957,88;62,000
958,43;-83,000
958,97;56,000
959,52;97,000
960,06;-42,000
960,60;-32,000
961,15;-88,000
961,69;22,000
962,24;72,000
962,78;116,00
963,32;-2,0000
963,87;-132,00
964,41;95,000
964,96;-12,000
965,50;68,000
966,04;105,00
966,59;70,000
967,13;92,000
967,67;8,0000
968,22;3,0000
968,76;-30,000
969,30;8,0000
969,85;-38,000
970,39;17,000
970,93;55,000
971,47;20,000
972,02;58,000
972,56;29,000
973,10;68,000
973,65;52,000
974,19;52,000
974,73;98,000
975,27;-30,000
975,82;-5,0000
976,36;-55,000
976,90;7,0000
977,44;-88,000
977,99;23,000
978,53;21,000
979,07;-67,000
979,61;-35,000
980,16;88,000
980,70;-34,000
981,24;-66,000
981,78;-1,0000
982,32;119,00
982,87;59,000
983,41;-79,000
983,95;-92,000
984,49;67,000
985,03;-8,0000
985,57;87,000
986,12;55,000
986,66;-64,000
987,20;63,000
987,74;66,000
988,28;12,000
988,82;-14,000
989,36;-15,000
989,91;-99,000
990,45;195,00
990,99;21,000
991,53;17,000
992,07;54,000
992,61;40,000
993,15;-50,000
993,69;-18,000
994,23;2,0000
994,77;44,000
995,31;11,000
995,86;27,000
996,40;61,000
996,94;85,000
997,48;-14,000
998,02;-22,000
998,56;61,000
999,10;31,000
999,64;-36,000
1000,18;6,0000
1000,72;-17,000
1001,26;32,000
1001,80;37,000
1002,34;48,000
1002,88;42,000
1003,42;53,000
1003,96;42,000
1004,50;47,000
1005,04;71,000
1005,58;-29,000
1006,12;45,000
1006,66;37,000
1007,20;33,000
1007,73;109,00
1008,27;18,000
1008,81;3,0000
1009,35;86,000
1009,89;61,000
1010,43;-21,000
1010,97;7,0000
1011,51;54,000
1012,05;106,00
1012,59;31,000
1013,13;7,0000
1013,66;140,00
1014,20;-26,000
1014,74;15,000
1015,28;-27,000
1015,82;52,000
1016,36;9,0000
1016,90;29,000
1017,43;5,0000
1017,97;103,00
1018,51;9,0000
1019,05;62,000
1019,59;28,000
1020,13;-10,0000
1020,66;-9,0000
1021,20;39,000
1021,74;6,0000
1022,28;-5,0000
1022,81;68,000
1023,35;6,0000
1023,89;-53,000
1024,43;-17,000
1024,97;36,000
1025,50;-10,0000
1026,04;13,000
1026,58;-56,000
1027,12;69,000
1027,65;-57,000
1028,19;-64,000
1028,73;-2,0000
1029,26;50,000
1029,80;106,00
1030,34;-87,000
1030,88;-53,000
1031,41;-59,000
1031,95;38,000
1032,49;-43,000
1033,02;72,000
1033,56;-57,000
1034,10;70,000
1034,63;37,000
1035,17;-21,000
1035,71;7,0000
1036,24;28,000
1036,78;-7,0000
1037,32;44,000
1037,85;-75,000
1038,39;167,00
1038,92;-82,000
1039,46;9,0000
1040,00;75,000
1040,53;-12,000
1041,07;104,00
1041,60;-58,000
1042,14;99,000
1042,68;51,000
1043,21;-45,000
1043,75;39,000
1044,28;-2,0000
1044,82;28,000
1045,35;43,000
1045,89;-15,000
1046,42;12,000
1046,96;65,000
1047,49;-34,000
1048,03;67,000
1048,57;-66,000
1049,10;-16,000
1049,64;31,000
1050,17;-55,000
1050,70;-1,0000
1051,24;-8,0000
1051,77;54,000
1052,31;-79,000
1052,84;-78,000
1053,38;51,000
1053,91;-152,00
1054,45;-8,0000
1054,98;-59,000
1055,52;32,000
1056,05;-35,000
1056,59;29,000
1057,12;45,000
1057,65;19,000
1058,19;-35,000
1058,72;40,000
1059,26;70,000
1059,79;-11,000
1060,32;14,000
1060,86;24,000
1061,39;-44,000
1061,93;24,000
1062,46;-20,000
1062,99;1,0000
1063,53;-59,000
1064,06;61,000
1064,59;-40,000
1065,13;-8,0000
1065,66;-105,00
1066,19;-13,000
1066,73;-12,000
1067,26;-26,000
1067,79;13,000
1068,33;-83,000
1068,86;-18,000
1069,39;-24,000
1069,92;-87,000
1070,46;47,000
1070,99;-53,000
1071,52;-5,0000
1072,05;-4,0000
1072,59;18,000
1073,12;91,000
1073,65;29,000
1074,18;18,000
1074,72;-88,000
1075,25;-7,0000
1075,78;92,000
1076,31;22,000
1076,85;-69,000
1077,38;-8,0000
1077,91;40,000
1078,44;61,000
1078,97;52,000
1079,51;77,000
1080,04;37,000
1080,57;-58,000
1081,10;-109,00
1081,63;12,000
1082,16;44,000
1082,70;-119,00
1083,23;52,000
1083,76;100,000
1084,29;8,0000
1084,82;17,000
1085,35;18,000
1085,88;43,000
1086,41;13,000
1086,94;2,0000
1087,48;-31,000
1088,01;-11,000
1088,54;51,000
1089,07;28,000
1089,60;-25,000
1090,13;49,000
1090,66;9,0000
1091,19;42,000
1091,72;55,000
1092,25;-6,0000
1092,78;-42,000
1093,31;33,000
1093,84;84,000
1094,37;1,0000
1094,90;-6,0000
1095,43;47,000
1095,96;53,000
1096,49;7,0000
1097,02;-31,000
1097,55;13,000
1098,08;-13,000
1098,61;-101,00
1099,14;49,000
1099,67;-85,000
1100,20;-108,00
