M- 14 del, 3, sur
Integration time: 5000 ms
Average: 1 scans
Nr of pixels used for smoothing: 0
Data measured with spectrometer serial number: 0604021S1
Wave   ;Sample
[nm]   ;[counts]
173,70;-307,00
174,30;-17,000
174,90;-21,000
175,50;-21,000
176,10;34,000
176,70;92,000
177,30;7,0000
177,90;-37,000
178,50;7,0000
179,10;-39,000
179,70;-11,000
180,30;-34,000
180,89;19,000
181,49;-29,000
182,09;-106,00
182,69;-59,000
183,29;12,000
183,89;-63,000
184,49;-9,0000
185,09;123,00
185,69;80,000
186,29;-72,000
186,89;84,000
187,48;68,000
188,08;-34,000
188,68;-20,000
189,28;-27,000
189,88;34,000
190,48;-13,000
191,08;-62,000
191,68;22,000
192,28;51,000
192,87;91,000
193,47;35,000
194,07;51,000
194,67;-68,000
195,27;0
195,87;137,00
196,47;25,000
197,06;-9,0000
197,66;13,000
198,26;-85,000
198,86;30,000
199,46;54,000
200,06;-91,000
200,66;-21,000
201,25;-68,000
201,85;33,000
202,45;20,000
203,05;-16,000
203,65;-24,000
204,24;56,000
204,84;-1,0000
205,44;-21,000
206,04;-69,000
206,64;3,0000
207,24;-16,000
207,83;31,000
208,43;-34,000
209,03;-2,0000
209,63;24,000
210,22;27,000
210,82;-7,0000
211,42;-55,000
212,02;36,000
212,62;-74,000
213,21;-22,000
213,81;-35,000
214,41;-96,000
215,01;-37,000
215,60;-51,000
216,20;157,00
216,80;83,000
217,40;0
218,00;33,000
218,59;-118,00
219,19;0
219,79;-11,000
220,38;57,000
220,98;-43,000
221,58;148,00
222,18;67,000
222,77;-65,000
223,37;-29,000
223,97;-24,000
224,57;18,000
225,16;89,000
225,76;11,000
226,36;-117,00
226,95;-82,000
227,55;25,000
228,15;-51,000
228,75;-147,00
229,34;10,0000
229,94;-14,000
230,54;-38,000
231,13;77,000
231,73;4,0000
232,33;28,000
232,92;12,000
233,52;6,0000
234,12;38,000
234,71;76,000
235,31;89,000
235,91;9,0000
236,50;-20,000
237,10;9,0000
237,70;-40,000
238,29;4,0000
238,89;31,000
239,49;49,000
240,08;-85,000
240,68;4,0000
241,28;16,000
241,87;3,0000
242,47;57,000
243,06;-34,000
243,66;25,000
244,26;9,0000
244,85;69,000
245,45;-65,000
246,05;-13,000
246,64;66,000
247,24;92,000
247,83;-83,000
248,43;-27,000
249,03;-17,000
249,62;-13,000
250,22;-62,000
250,81;-30,000
251,41;43,000
252,01;-2,0000
252,60;109,00
253,20;-88,000
253,79;31,000
254,39;-44,000
254,98;40,000
255,58;-4,0000
256,18;-9,0000
256,77;58,000
257,37;42,000
257,96;-52,000
258,56;-26,000
259,15;61,000
259,75;6,0000
260,34;73,000
260,94;46,000
261,53;99,000
262,13;45,000
262,73;-38,000
263,32;-20,000
263,92;-39,000
264,51;71,000
265,11;17,000
265,70;9,0000
266,30;16,000
266,89;37,000
267,49;-92,000
268,08;33,000
268,68;53,000
269,27;-5,0000
269,87;18,000
270,46;-22,000
271,06;-47,000
271,65;85,000
272,25;35,000
272,84;45,000
273,44;1,0000
274,03;87,000
274,62;17,000
275,22;-58,000
275,81;-6,0000
276,41;76,000
277,00;162,00
277,60;-26,000
278,19;69,000
278,79;17,000
279,38;15,000
279,98;8,0000
280,57;-10,0000
281,16;-104,00
281,76;32,000
282,35;64,000
282,95;59,000
283,54;-24,000
284,14;-34,000
284,73;-94,000
285,32;-18,000
285,92;20,000
286,51;-1,0000
287,11;40,000
287,70;22,000
288,29;0
288,89;64,000
289,48;47,000
290,08;-34,000
290,67;-62,000
291,26;64,000
291,86;8,0000
292,45;-26,000
293,04;-83,000
293,64;-3,0000
294,23;-9,0000
294,83;57,000
295,42;-8,0000
296,01;47,000
296,61;-136,00
297,20;-131,00
297,79;50,000
298,39;72,000
298,98;21,000
299,57;-76,000
300,17;4,0000
300,76;1,0000
301,35;-12,000
301,95;65,000
302,54;26,000
303,13;40,000
303,73;-32,000
304,32;0
304,91;14,000
305,51;100,000
306,10;-84,000
306,69;39,000
307,28;178,00
307,88;-30,000
308,47;90,000
309,06;5,0000
309,66;-58,000
310,25;26,000
310,84;4,0000
311,43;-9,0000
312,03;91,000
312,62;99,000
313,21;119,00
313,81;138,00
314,40;276,00
314,99;281,00
315,58;200,00
316,18;270,00
316,77;224,00
317,36;178,00
317,95;142,00
318,54;136,00
319,14;121,00
319,73;3,0000
320,32;127,00
320,91;-61,000
321,51;4,0000
322,10;55,000
322,69;-19,000
323,28;63,000
323,87;47,000
324,47;45,000
325,06;44,000
325,65;34,000
326,24;68,000
326,83;64,000
327,43;85,000
328,02;79,000
328,61;88,000
329,20;48,000
329,79;86,000
330,39;49,000
330,98;93,000
331,57;44,000
332,16;105,00
332,75;109,00
333,34;162,00
333,93;35,000
334,53;193,00
335,12;287,00
335,71;706,00
336,30;1136,0
336,89;1617,0
337,48;1626,0
338,07;1507,0
338,67;1492,0
339,26;1242,0
339,85;1108,0
340,44;725,00
341,03;259,00
341,62;165,00
342,21;60,000
342,80;110,00
343,39;95,000
343,99;-40,000
344,58;-23,000
345,17;70,000
345,76;8,0000
346,35;18,000
346,94;75,000
347,53;3,0000
348,12;28,000
348,71;147,00
349,30;133,00
349,89;118,00
350,48;293,00
351,07;212,00
351,66;242,00
352,26;312,00
352,85;488,00
353,44;774,00
354,03;901,00
354,62;801,00
355,21;965,00
355,80;913,00
356,39;1341,0
356,98;1999,0
357,57;2098,0
358,16;2131,0
358,75;2160,0
359,34;1932,0
359,93;1806,0
360,52;1325,0
361,11;813,00
361,70;274,00
362,29;71,000
362,88;121,00
363,47;80,000
364,06;103,00
364,65;183,00
365,24;129,00
365,83;195,00
366,42;73,000
367,01;225,00
367,60;180,00
368,19;140,00
368,78;252,00
369,37;265,00
369,95;481,00
370,54;391,00
371,13;388,00
371,72;430,00
372,31;393,00
372,90;475,00
373,49;547,00
374,08;577,00
374,67;869,00
375,26;1049,0
375,85;960,00
376,44;931,00
377,03;881,00
377,61;817,00
378,20;766,00
378,79;917,00
379,38;718,00
379,97;1133,0
380,56;1205,0
381,15;1280,0
381,74;1057,0
382,33;1094,0
382,91;937,00
383,50;731,00
384,09;373,00
384,68;220,00
385,27;274,00
385,86;246,00
386,45;296,00
387,03;402,00
387,62;294,00
388,21;374,00
388,80;302,00
389,39;374,00
389,98;354,00
390,57;383,00
391,15;314,00
391,74;430,00
392,33;360,00
392,92;293,00
393,51;339,00
394,09;370,00
394,68;467,00
395,27;415,00
395,86;372,00
396,45;274,00
397,03;282,00
397,62;317,00
398,21;297,00
398,80;439,00
399,39;482,00
399,97;610,00
400,56;560,00
401,15;553,00
401,74;583,00
402,32;463,00
402,91;336,00
403,50;191,00
404,09;277,00
404,67;406,00
405,26;469,00
405,85;699,00
406,44;617,00
407,02;660,00
407,61;560,00
408,20;547,00
408,78;503,00
409,37;320,00
409,96;214,00
410,55;288,00
411,13;182,00
411,72;193,00
412,31;245,00
412,89;373,00
413,48;214,00
414,07;290,00
414,65;328,00
415,24;377,00
415,83;219,00
416,42;260,00
417,00;341,00
417,59;328,00
418,18;255,00
418,76;237,00
419,35;358,00
419,94;493,00
420,52;553,00
421,11;368,00
421,69;356,00
422,28;409,00
422,87;340,00
423,45;372,00
424,04;185,00
424,63;361,00
425,21;284,00
425,80;338,00
426,38;455,00
426,97;548,00
427,56;422,00
428,14;365,00
428,73;457,00
429,31;381,00
429,90;335,00
430,49;253,00
431,07;192,00
431,66;148,00
432,24;98,000
432,83;136,00
433,42;213,00
434,00;321,00
434,59;418,00
435,17;312,00
435,76;410,00
436,34;324,00
436,93;299,00
437,51;214,00
438,10;513,00
438,69;183,00
439,27;170,00
439,86;84,000
440,44;152,00
441,03;154,00
441,61;113,00
442,20;227,00
442,78;189,00
443,37;118,00
443,95;166,00
444,54;150,00
445,12;96,000
445,71;-19,000
446,29;156,00
446,88;133,00
447,46;109,00
448,05;151,00
448,63;206,00
449,22;151,00
449,80;246,00
450,39;141,00
450,97;155,00
451,56;125,00
452,14;128,00
452,72;85,000
453,31;160,00
453,89;156,00
454,48;144,00
455,06;162,00
455,65;57,000
456,23;65,000
456,81;132,00
457,40;125,00
457,98;130,00
458,57;197,00
459,15;149,00
459,74;18,000
460,32;113,00
460,90;12,000
461,49;63,000
462,07;178,00
462,66;81,000
463,24;157,00
463,82;153,00
464,41;82,000
464,99;101,00
465,57;105,00
466,16;163,00
466,74;280,00
467,33;58,000
467,91;66,000
468,49;82,000
469,08;33,000
469,66;48,000
470,24;71,000
470,83;105,00
471,41;89,000
471,99;55,000
472,58;122,00
473,16;73,000
473,74;71,000
474,33;46,000
474,91;51,000
475,49;80,000
476,08;93,000
476,66;177,00
477,24;116,00
477,82;74,000
478,41;8,0000
478,99;75,000
479,57;131,00
480,16;68,000
480,74;162,00
481,32;102,00
481,90;97,000
482,49;198,00
483,07;111,00
483,65;256,00
484,23;162,00
484,82;98,000
485,40;142,00
485,98;151,00
486,56;147,00
487,15;181,00
487,73;94,000
488,31;144,00
488,89;-66,000
489,47;82,000
490,06;139,00
490,64;145,00
491,22;240,00
491,80;157,00
492,39;12,000
492,97;102,00
493,55;82,000
494,13;57,000
494,71;109,00
495,29;113,00
495,88;134,00
496,46;64,000
497,04;10,0000
497,62;40,000
498,20;87,000
498,78;53,000
499,37;79,000
499,95;200,00
500,53;156,00
501,11;202,00
501,69;73,000
502,27;49,000
502,85;100,000
503,44;245,00
504,02;160,00
504,60;179,00
505,18;41,000
505,76;-7,0000
506,34;60,000
506,92;29,000
507,50;80,000
508,08;59,000
508,67;63,000
509,25;103,00
509,83;35,000
510,41;82,000
510,99;93,000
511,57;-52,000
512,15;-5,0000
512,73;129,00
513,31;147,00
513,89;16,000
514,47;60,000
515,05;12,000
515,63;108,00
516,21;86,000
516,79;49,000
517,38;4,0000
517,96;103,00
518,54;96,000
519,12;91,000
519,70;52,000
520,28;99,000
520,86;43,000
521,44;162,00
522,02;146,00
522,60;154,00
523,18;-36,000
523,76;52,000
524,34;-31,000
524,92;99,000
525,50;-18,000
526,08;96,000
526,66;138,00
527,24;99,000
527,82;64,000
528,39;98,000
528,97;97,000
529,55;37,000
530,13;88,000
530,71;18,000
531,29;102,00
531,87;92,000
532,45;30,000
533,03;32,000
533,61;-34,000
534,19;164,00
534,77;25,000
535,35;107,00
535,93;43,000
536,51;118,00
537,08;-44,000
537,66;69,000
538,24;126,00
538,82;74,000
539,40;89,000
539,98;104,00
540,56;9,0000
541,14;108,00
541,72;36,000
542,29;156,00
542,87;140,00
543,45;62,000
544,03;48,000
544,61;86,000
545,19;1,0000
545,77;94,000
546,34;166,00
546,92;96,000
547,50;150,00
548,08;122,00
548,66;209,00
549,23;38,000
549,81;-5,0000
550,39;-29,000
550,97;84,000
551,55;24,000
552,13;55,000
552,70;-11,000
553,28;94,000
553,86;58,000
554,44;-18,000
555,01;66,000
555,59;-2,0000
556,17;11,000
556,75;50,000
557,33;33,000
557,90;105,00
558,48;3,0000
559,06;7,0000
559,64;38,000
560,21;176,00
560,79;70,000
561,37;69,000
561,95;-47,000
562,52;8,0000
563,10;186,00
563,68;31,000
564,25;142,00
564,83;19,000
565,41;76,000
565,99;51,000
566,56;34,000
567,14;94,000
567,72;127,00
568,29;-12,000
568,87;-3,0000
569,45;136,00
570,02;135,00
570,60;16,000
571,18;108,00
571,75;96,000
572,33;69,000
572,91;60,000
573,48;131,00
574,06;144,00
574,64;-39,000
575,21;91,000
575,79;35,000
576,37;88,000
576,94;18,000
577,52;66,000
578,09;34,000
578,67;126,00
579,25;25,000
579,82;63,000
580,40;142,00
580,97;63,000
581,55;-1,0000
582,13;64,000
582,70;40,000
583,28;12,000
583,85;159,00
584,43;53,000
585,01;128,00
585,58;13,000
586,16;-32,000
586,73;70,000
587,31;54,000
587,88;121,00
588,46;90,000
589,03;16,000
589,61;100,000
590,18;77,000
590,76;84,000
591,34;22,000
591,91;46,000
592,49;177,00
593,06;83,000
593,64;19,000
594,21;80,000
594,79;21,000
595,36;4,0000
595,94;64,000
596,51;13,000
597,09;-42,000
597,66;44,000
598,24;16,000
598,81;57,000
599,38;32,000
599,96;46,000
600,53;-3,0000
601,11;-3,0000
601,68;65,000
602,26;129,00
602,83;84,000
603,41;78,000
603,98;30,000
604,56;-8,0000
605,13;24,000
605,70;35,000
606,28;-3,0000
606,85;62,000
607,43;156,00
608,00;66,000
608,57;15,000
609,15;-24,000
609,72;50,000
610,30;87,000
610,87;112,00
611,44;38,000
612,02;-7,0000
612,59;35,000
613,16;158,00
613,74;32,000
614,31;37,000
614,89;80,000
615,46;-16,000
616,03;79,000
616,61;205,00
617,18;-2,0000
617,75;35,000
618,33;-121,00
618,90;102,00
619,47;90,000
620,05;17,000
620,62;102,00
621,19;70,000
621,77;86,000
622,34;25,000
622,91;183,00
623,48;-12,000
624,06;56,000
624,63;-33,000
625,20;12,000
625,78;180,00
626,35;37,000
626,92;67,000
627,49;95,000
628,07;77,000
628,64;127,00
629,21;92,000
629,78;-26,000
630,36;69,000
630,93;181,00
631,50;183,00
632,07;95,000
632,65;60,000
633,22;-19,000
633,79;109,00
634,36;45,000
634,93;20,000
635,51;0
636,08;87,000
636,65;-41,000
637,22;21,000
637,79;61,000
638,37;141,00
638,94;-24,000
639,51;-33,000
640,08;-7,0000
640,65;-61,000
641,22;29,000
641,80;100,000
642,37;67,000
642,94;165,00
643,51;196,00
644,08;13,000
644,65;90,000
645,22;50,000
645,80;6,0000
646,37;73,000
646,94;51,000
647,51;72,000
648,08;155,00
648,65;61,000
649,22;-20,000
649,79;86,000
650,36;89,000
650,93;32,000
651,51;-295,00
652,08;183,00
652,65;160,00
653,22;78,000
653,79;146,00
654,36;191,00
654,93;51,000
655,50;147,00
656,07;180,00
656,64;272,00
657,21;200,00
657,78;178,00
658,35;162,00
658,92;281,00
659,49;311,00
660,06;242,00
660,63;95,000
661,20;156,00
661,77;104,00
662,34;175,00
662,91;162,00
663,48;118,00
664,05;76,000
664,62;155,00
665,19;75,000
665,76;84,000
666,33;65,000
666,90;137,00
667,47;53,000
668,04;80,000
668,61;51,000
669,18;10,0000
669,75;82,000
670,32;17,000
670,89;109,00
671,46;145,00
672,03;115,00
672,60;-6,0000
673,17;77,000
673,74;7,0000
674,30;12,000
674,87;11,000
675,44;-64,000
676,01;71,000
676,58;36,000
677,15;-20,000
677,72;63,000
678,29;-9,0000
678,86;24,000
679,42;95,000
679,99;36,000
680,56;96,000
681,13;78,000
681,70;103,00
682,27;-91,000
682,84;-35,000
683,40;60,000
683,97;5,0000
684,54;20,000
685,11;68,000
685,68;28,000
686,25;-41,000
686,81;99,000
687,38;-45,000
687,95;22,000
688,52;-67,000
689,09;-47,000
689,65;73,000
690,22;130,00
690,79;-69,000
691,36;47,000
691,92;71,000
692,49;-5,0000
693,06;67,000
693,63;59,000
694,20;102,00
694,76;89,000
695,33;103,00
695,90;20,000
696,47;53,000
697,03;-78,000
697,60;43,000
698,17;0
698,73;-2,0000
699,30;15,000
699,87;-22,000
700,44;52,000
701,00;-77,000
701,57;37,000
702,14;27,000
702,70;4,0000
703,27;73,000
703,84;56,000
704,40;91,000
704,97;-27,000
705,54;58,000
706,10;55,000
706,67;-48,000
707,24;38,000
707,80;5,0000
708,37;19,000
708,94;-7,0000
709,50;-6,0000
710,07;67,000
710,64;53,000
711,20;9,0000
711,77;86,000
712,33;78,000
712,90;-43,000
713,47;11,000
714,03;37,000
714,60;6,0000
715,16;61,000
715,73;43,000
716,30;-37,000
716,86;133,00
717,43;84,000
717,99;-23,000
718,56;263,00
719,12;-32,000
719,69;16,000
720,26;53,000
720,82;8,0000
721,39;5,0000
721,95;1,0000
722,52;107,00
723,08;63,000
723,65;-6,0000
724,21;55,000
724,78;19,000
725,34;61,000
725,91;129,00
726,47;144,00
727,04;13,000
727,60;89,000
728,17;-116,00
728,73;59,000
729,30;24,000
729,86;17,000
730,43;37,000
730,99;4,0000
731,56;4,0000
732,12;38,000
732,68;62,000
733,25;-74,000
733,81;-75,000
734,38;84,000
734,94;96,000
735,51;85,000
736,07;37,000
736,63;83,000
737,20;89,000
737,76;12,000
738,33;23,000
738,89;6,0000
739,46;70,000
740,02;-12,000
740,58;27,000
741,15;-5,0000
741,71;72,000
742,27;-77,000
742,84;108,00
743,40;140,00
743,97;93,000
744,53;59,000
745,09;178,00
745,66;23,000
746,22;179,00
746,78;45,000
747,35;177,00
747,91;81,000
748,47;89,000
749,04;141,00
749,60;131,00
750,16;31,000
750,72;84,000
751,29;28,000
751,85;-24,000
752,41;75,000
752,98;23,000
753,54;59,000
754,10;-48,000
754,66;111,00
755,23;-43,000
755,79;29,000
756,35;93,000
756,91;-16,000
757,48;11,000
758,04;-28,000
758,60;-32,000
759,16;64,000
759,73;24,000
760,29;-10,0000
760,85;62,000
761,41;-28,000
761,98;-45,000
762,54;6,0000
763,10;30,000
763,66;-20,000
764,22;20,000
764,79;19,000
765,35;-55,000
765,91;77,000
766,47;29,000
767,03;-28,000
767,59;95,000
768,16;-6,0000
768,72;30,000
769,28;16,000
769,84;148,00
770,40;-47,000
770,96;64,000
771,52;52,000
772,09;58,000
772,65;2,0000
773,21;110,00
773,77;-42,000
774,33;55,000
774,89;-55,000
775,45;-3,0000
776,01;25,000
776,57;29,000
777,13;180,00
777,70;16,000
778,26;35,000
778,82;49,000
779,38;16,000
779,94;42,000
780,50;83,000
781,06;-14,000
781,62;116,00
782,18;-83,000
782,74;89,000
783,30;-48,000
783,86;-24,000
784,42;27,000
784,98;-124,00
785,54;146,00
786,10;-57,000
786,66;16,000
787,22;-95,000
787,78;97,000
788,34;17,000
788,90;62,000
789,46;64,000
790,02;5,0000
790,58;0
791,14;45,000
791,70;51,000
792,26;-34,000
792,82;7,0000
793,38;29,000
793,94;41,000
794,50;4,0000
795,06;70,000
795,62;44,000
796,17;-28,000
796,73;-3,0000
797,29;-16,000
797,85;101,00
798,41;23,000
798,97;33,000
799,53;-18,000
800,09;97,000
800,65;88,000
801,21;102,00
801,76;16,000
802,32;-8,0000
802,88;86,000
803,44;10,0000
804,00;37,000
804,56;23,000
805,12;-90,000
805,67;-5,0000
806,23;5,0000
806,79;-17,000
807,35;36,000
807,91;38,000
808,46;-30,000
809,02;-6,0000
809,58;126,00
810,14;-15,000
810,70;39,000
811,26;26,000
811,81;71,000
812,37;59,000
812,93;80,000
813,49;7,0000
814,04;-93,000
814,60;54,000
815,16;46,000
815,72;106,00
816,27;114,00
816,83;-85,000
817,39;-20,000
817,95;-25,000
818,50;105,00
819,06;-22,000
819,62;12,000
820,18;86,000
820,73;-49,000
821,29;148,00
821,85;-20,000
822,40;102,00
822,96;13,000
823,52;84,000
824,07;60,000
824,63;-41,000
825,19;82,000
825,74;78,000
826,30;45,000
826,86;19,000
827,41;44,000
827,97;41,000
828,53;-10,0000
829,08;32,000
829,64;-74,000
830,20;52,000
830,75;-9,0000
831,31;-16,000
831,86;-21,000
832,42;-55,000
832,98;113,00
833,53;-61,000
834,09;22,000
834,64;39,000
835,20;-7,0000
835,76;5,0000
836,31;-84,000
836,87;36,000
837,42;34,000
837,98;62,000
838,53;-52,000
839,09;151,00
839,64;16,000
840,20;20,000
840,75;48,000
841,31;102,00
841,87;-82,000
842,42;-60,000
842,98;3,0000
843,53;3,0000
844,09;-5,0000
844,64;-7,0000
845,20;-57,000
845,75;66,000
846,31;-47,000
846,86;-15,000
847,41;62,000
847,97;52,000
848,52;27,000
849,08;36,000
849,63;76,000
850,19;-3,0000
850,74;19,000
851,30;-1,0000
851,85;-27,000
852,41;-1,0000
852,96;-23,000
853,51;46,000
854,07;0
854,62;47,000
855,18;29,000
855,73;-7,0000
856,28;-56,000
856,84;-14,000
857,39;1,0000
857,95;110,00
858,50;-13,000
859,05;-66,000
859,61;27,000
860,16;89,000
860,71;37,000
861,27;38,000
861,82;120,00
862,37;79,000
862,93;-18,000
863,48;14,000
864,03;-19,000
864,59;112,00
865,14;-49,000
865,69;169,00
866,25;35,000
866,80;672,00
867,35;2,0000
867,90;56,000
868,46;18,000
869,01;-42,000
869,56;72,000
870,12;-63,000
870,67;128,00
871,22;6,0000
871,77;21,000
872,33;93,000
872,88;-90,000
873,43;16,000
873,98;67,000
874,54;19,000
875,09;-29,000
875,64;16,000
876,19;-75,000
876,74;-24,000
877,30;9,0000
877,85;39,000
878,40;-43,000
878,95;46,000
879,50;-63,000
880,06;-61,000
880,61;54,000
881,16;53,000
881,71;-127,00
882,26;-64,000
882,81;-60,000
883,37;55,000
883,92;-4,0000
884,47;-15,000
885,02;27,000
885,57;19,000
886,12;-1,0000
886,67;-10,0000
887,22;-33,000
887,78;-38,000
888,33;-20,000
888,88;169,00
889,43;8,0000
889,98;-12,000
890,53;-98,000
891,08;22,000
891,63;-6,0000
892,18;191,00
892,73;126,00
893,28;-33,000
893,83;22,000
894,38;126,00
894,93;1,0000
895,48;-1,0000
896,03;-19,000
896,59;-37,000
897,14;18,000
897,69;-11,000
898,24;-14,000
898,79;78,000
899,34;46,000
899,89;72,000
900,44;118,00
900,99;45,000
901,53;82,000
902,08;17,000
902,63;58,000
903,18;33,000
903,73;22,000
904,28;-83,000
904,83;16,000
905,38;121,00
905,93;-74,000
906,48;97,000
907,03;-19,000
907,58;23,000
908,13;-30,000
908,68;70,000
909,23;45,000
909,78;10,0000
910,32;-66,000
910,87;-20,000
911,42;-82,000
911,97;35,000
912,52;146,00
913,07;54,000
913,62;-29,000
914,17;16,000
914,71;154,00
915,26;65,000
915,81;1,0000
916,36;2,0000
916,91;54,000
917,46;55,000
918,00;50,000
918,55;57,000
919,10;105,00
919,65;24,000
920,20;-34,000
920,74;25,000
921,29;-23,000
921,84;77,000
922,39;112,00
922,94;-53,000
923,48;15,000
924,03;1,0000
924,58;17,000
925,13;65,000
925,67;-9,0000
926,22;9,0000
926,77;67,000
927,32;12,000
927,86;-1,0000
928,41;71,000
928,96;-24,000
929,50;1,0000
930,05;11,000
930,60;43,000
931,15;-89,000
931,69;61,000
932,24;-7,0000
932,79;-25,000
933,33;-98,000
933,88;33,000
934,43;-35,000
934,97;9,0000
935,52;16,000
936,07;45,000
936,61;-81,000
937,16;71,000
937,71;-99,000
938,25;-17,000
938,80;-14,000
939,34;44,000
939,89;72,000
940,44;-45,000
940,98;-61,000
941,53;11,000
942,07;-60,000
942,62;51,000
943,17;-9,0000
943,71;60,000
944,26;-49,000
944,80;62,000
945,35;-44,000
945,89;-83,000
946,44;8,0000
946,99;83,000
947,53;73,000
948,08;-57,000
948,62;14,000
949,17;74,000
949,71;21,000
950,26;8,0000
950,80;-43,000
951,35;1,0000
951,89;17,000
952,44;-34,000
952,98;-5,0000
953,53;-34,000
954,07;120,00
954,62;12,000
955,16;-36,000
955,71;20,000
956,25;-18,000
956,79;-49,000
957,34;31,000
957,88;125,00
958,43;0
958,97;62,000
959,52;52,000
960,06;12,000
960,60;-28,000
961,15;-10,0000
961,69;-44,000
962,24;78,000
962,78;-63,000
963,32;54,000
963,87;-18,000
964,41;19,000
964,96;7,0000
965,50;17,000
966,04;55,000
966,59;4,0000
967,13;0
967,67;-38,000
968,22;-99,000
968,76;-44,000
969,30;116,00
969,85;-66,000
970,39;-14,000
970,93;56,000
971,47;69,000
972,02;28,000
972,56;-41,000
973,10;-99,000
973,65;4,0000
974,19;65,000
974,73;54,000
975,27;-8,0000
975,82;20,000
976,36;54,000
976,90;89,000
977,44;-13,000
977,99;-32,000
978,53;-1,0000
979,07;-76,000
979,61;39,000
980,16;-40,000
980,70;5,0000
981,24;-37,000
981,78;-131,00
982,32;-68,000
982,87;29,000
983,41;69,000
983,95;-20,000
984,49;-40,000
985,03;-88,000
985,57;21,000
986,12;162,00
986,66;-5,0000
987,20;-32,000
987,74;-28,000
988,28;90,000
988,82;32,000
989,36;165,00
989,91;-206,00
990,45;-17,000
990,99;-19,000
991,53;86,000
992,07;23,000
992,61;23,000
993,15;-27,000
993,69;83,000
994,23;-85,000
994,77;-13,000
995,31;14,000
995,86;-74,000
996,40;28,000
996,94;-12,000
997,48;11,000
998,02;96,000
998,56;-27,000
999,10;34,000
999,64;-1,0000
1000,18;40,000
1000,72;9,0000
1001,26;-87,000
1001,80;1,0000
1002,34;-14,000
1002,88;0
1003,42;37,000
1003,96;46,000
1004,50;-38,000
1005,04;-46,000
1005,58;87,000
1006,12;-28,000
1006,66;140,00
1007,20;36,000
1007,73;48,000
1008,27;-25,000
1008,81;-54,000
1009,35;44,000
1009,89;60,000
1010,43;26,000
1010,97;56,000
1011,51;-39,000
1012,05;-3,0000
1012,59;24,000
1013,13;-8,0000
1013,66;-45,000
1014,20;26,000
1014,74;60,000
1015,28;-17,000
1015,82;12,000
1016,36;-20,000
1016,90;-4,0000
1017,43;-33,000
1017,97;180,00
1018,51;33,000
1019,05;29,000
1019,59;-119,00
1020,13;-18,000
1020,66;55,000
1021,20;32,000
1021,74;62,000
1022,28;24,000
1022,81;99,000
1023,35;115,00
1023,89;31,000
1024,43;66,000
1024,97;-59,000
1025,50;11,000
1026,04;-20,000
1026,58;42,000
1027,12;-17,000
1027,65;-33,000
1028,19;3,0000
1028,73;-32,000
1029,26;47,000
1029,80;-85,000
1030,34;-6,0000
1030,88;75,000
1031,41;-10,0000
1031,95;54,000
1032,49;-7,0000
1033,02;52,000
1033,56;53,000
1034,10;94,000
1034,63;-16,000
1035,17;-28,000
1035,71;-116,00
1036,24;21,000
1036,78;-66,000
1037,32;-49,000
1037,85;136,00
1038,39;48,000
1038,92;-24,000
1039,46;-9,0000
1040,00;-12,000
1040,53;-16,000
1041,07;36,000
1041,60;39,000
1042,14;9,0000
1042,68;60,000
1043,21;30,000
1043,75;-2,0000
1044,28;23,000
1044,82;-34,000
1045,35;32,000
1045,89;-57,000
1046,42;18,000
1046,96;-3,0000
1047,49;5,0000
1048,03;-113,00
1048,57;-78,000
1049,10;89,000
1049,64;14,000
1050,17;21,000
1050,70;2,0000
1051,24;86,000
1051,77;93,000
1052,31;70,000
1052,84;-31,000
1053,38;31,000
1053,91;97,000
1054,45;33,000
1054,98;97,000
1055,52;-29,000
1056,05;43,000
1056,59;-25,000
1057,12;-84,000
1057,65;-49,000
1058,19;89,000
1058,72;89,000
1059,26;-24,000
1059,79;-4,0000
1060,32;72,000
1060,86;20,000
1061,39;10,0000
1061,93;26,000
1062,46;87,000
1062,99;-24,000
1063,53;-26,000
1064,06;153,00
1064,59;33,000
1065,13;-2,0000
1065,66;67,000
1066,19;19,000
1066,73;-2,0000
1067,26;102,00
1067,79;11,000
1068,33;83,000
1068,86;108,00
1069,39;15,000
1069,92;12,000
1070,46;29,000
1070,99;11,000
1071,52;-51,000
1072,05;-109,00
1072,59;-44,000
1073,12;-10,0000
1073,65;31,000
1074,18;-30,000
1074,72;4,0000
1075,25;12,000
1075,78;-59,000
1076,31;60,000
1076,85;-21,000
1077,38;-72,000
1077,91;60,000
1078,44;-103,00
1078,97;-28,000
1079,51;-88,000
1080,04;52,000
1080,57;1,0000
1081,10;20,000
1081,63;-123,00
1082,16;-92,000
1082,70;18,000
1083,23;86,000
1083,76;6,0000
1084,29;-38,000
1084,82;-79,000
1085,35;23,000
1085,88;-46,000
1086,41;-13,000
1086,94;-59,000
1087,48;-12,000
1088,01;29,000
1088,54;-20,000
1089,07;50,000
1089,60;105,00
1090,13;19,000
1090,66;0
1091,19;38,000
1091,72;37,000
1092,25;50,000
1092,78;12,000
1093,31;53,000
1093,84;-4,0000
1094,37;-28,000
1094,90;49,000
1095,43;3,0000
1095,96;15,000
1096,49;-174,00
1097,02;50,000
1097,55;-35,000
1098,08;1,0000
1098,61;-119,00
1099,14;-43,000
1099,67;104,00
1100,20;-14,000
