M- 25 del, 3
Integration time: 5000 ms
Average: 1 scans
Nr of pixels used for smoothing: 0
Data measured with spectrometer serial number: 0604021S1
Wave   ;Sample
[nm]   ;[counts]
173,70;347,00
174,30;88,000
174,90;140,00
175,50;121,00
176,10;92,000
176,70;-3,0000
177,30;20,000
177,90;37,000
178,50;58,000
179,10;106,00
179,70;45,000
180,30;-79,000
180,89;118,00
181,49;69,000
182,09;98,000
182,69;39,000
183,29;39,000
183,89;2,0000
184,49;73,000
185,09;99,000
185,69;19,000
186,29;11,000
186,89;17,000
187,48;140,00
188,08;-44,000
188,68;75,000
189,28;-3,0000
189,88;92,000
190,48;72,000
191,08;-36,000
191,68;51,000
192,28;23,000
192,87;92,000
193,47;56,000
194,07;132,00
194,67;-33,000
195,27;-94,000
195,87;-25,000
196,47;81,000
197,06;-10,0000
197,66;55,000
198,26;31,000
198,86;36,000
199,46;-12,000
200,06;-64,000
200,66;146,00
201,25;71,000
201,85;16,000
202,45;41,000
203,05;94,000
203,65;55,000
204,24;102,00
204,84;102,00
205,44;123,00
206,04;47,000
206,64;73,000
207,24;101,00
207,83;73,000
208,43;8,0000
209,03;86,000
209,63;142,00
210,22;121,00
210,82;129,00
211,42;40,000
212,02;76,000
212,62;7,0000
213,21;69,000
213,81;-21,000
214,41;99,000
215,01;105,00
215,60;37,000
216,20;-36,000
216,80;79,000
217,40;109,00
218,00;99,000
218,59;144,00
219,19;-13,000
219,79;32,000
220,38;76,000
220,98;64,000
221,58;139,00
222,18;91,000
222,77;87,000
223,37;47,000
223,97;70,000
224,57;-10,0000
225,16;40,000
225,76;70,000
226,36;32,000
226,95;110,00
227,55;38,000
228,15;100,000
228,75;36,000
229,34;98,000
229,94;27,000
230,54;75,000
231,13;92,000
231,73;120,00
232,33;84,000
232,92;-4,0000
233,52;-21,000
234,12;65,000
234,71;5,0000
235,31;235,00
235,91;0
236,50;8,0000
237,10;24,000
237,70;414,00
238,29;78,000
238,89;40,000
239,49;33,000
240,08;29,000
240,68;57,000
241,28;83,000
241,87;54,000
242,47;123,00
243,06;28,000
243,66;55,000
244,26;8,0000
244,85;121,00
245,45;0
246,05;58,000
246,64;88,000
247,24;123,00
247,83;109,00
248,43;22,000
249,03;39,000
249,62;0
250,22;57,000
250,81;126,00
251,41;20,000
252,01;42,000
252,60;39,000
253,20;109,00
253,79;21,000
254,39;36,000
254,98;89,000
255,58;52,000
256,18;22,000
256,77;84,000
257,37;-8,0000
257,96;-9,0000
258,56;68,000
259,15;40,000
259,75;39,000
260,34;48,000
260,94;32,000
261,53;150,00
262,13;108,00
262,73;40,000
263,32;37,000
263,92;181,00
264,51;-82,000
265,11;17,000
265,70;25,000
266,30;64,000
266,89;66,000
267,49;61,000
268,08;13,000
268,68;-22,000
269,27;101,00
269,87;56,000
270,46;61,000
271,06;2,0000
271,65;24,000
272,25;83,000
272,84;19,000
273,44;51,000
274,03;57,000
274,62;9,0000
275,22;35,000
275,81;85,000
276,41;161,00
277,00;45,000
277,60;11,000
278,19;60,000
278,79;25,000
279,38;29,000
279,98;-19,000
280,57;89,000
281,16;44,000
281,76;62,000
282,35;136,00
282,95;213,00
283,54;20,000
284,14;51,000
284,73;-19,000
285,32;13,000
285,92;-31,000
286,51;14,000
287,11;25,000
287,70;-19,000
288,29;-18,000
288,89;86,000
289,48;18,000
290,08;75,000
290,67;60,000
291,26;150,00
291,86;43,000
292,45;38,000
293,04;34,000
293,64;35,000
294,23;138,00
294,83;49,000
295,42;32,000
296,01;-29,000
296,61;118,00
297,20;84,000
297,79;120,00
298,39;38,000
298,98;71,000
299,57;91,000
300,17;164,00
300,76;113,00
301,35;35,000
301,95;39,000
302,54;31,000
303,13;73,000
303,73;26,000
304,32;24,000
304,91;69,000
305,51;121,00
306,10;118,00
306,69;20,000
307,28;58,000
307,88;-13,000
308,47;128,00
309,06;126,00
309,66;133,00
310,25;19,000
310,84;40,000
311,43;86,000
312,03;103,00
312,62;160,00
313,21;166,00
313,81;148,00
314,40;243,00
314,99;372,00
315,58;641,00
316,18;638,00
316,77;703,00
317,36;593,00
317,95;483,00
318,54;404,00
319,14;341,00
319,73;146,00
320,32;140,00
320,91;80,000
321,51;124,00
322,10;18,000
322,69;5,0000
323,28;48,000
323,87;74,000
324,47;65,000
325,06;21,000
325,65;75,000
326,24;81,000
326,83;60,000
327,43;-225,00
328,02;177,00
328,61;0
329,20;8,0000
329,79;192,00
330,39;157,00
330,98;157,00
331,57;138,00
332,16;112,00
332,75;214,00
333,34;221,00
333,93;222,00
334,53;234,00
335,12;558,00
335,71;1479,0
336,30;3424,0
336,89;5013,0
337,48;4962,0
338,07;4912,0
338,67;4810,0
339,26;4329,0
339,85;3686,0
340,44;2270,0
341,03;497,00
341,62;137,00
342,21;303,00
342,80;202,00
343,39;108,00
343,99;120,00
344,58;131,00
345,17;212,00
345,76;111,00
346,35;24,000
346,94;132,00
347,53;130,00
348,12;87,000
348,71;162,00
349,30;308,00
349,89;136,00
350,48;193,00
351,07;187,00
351,66;434,00
352,26;788,00
352,85;1262,0
353,44;1824,0
354,03;1860,0
354,62;1879,0
355,21;1949,0
355,80;2508,0
356,39;3849,0
356,98;6258,0
357,57;7022,0
358,16;6947,0
358,75;6726,0
359,34;6356,0
359,93;5762,0
360,52;4513,0
361,11;2278,0
361,70;341,00
362,29;278,00
362,88;121,00
363,47;102,00
364,06;140,00
364,65;93,000
365,24;157,00
365,83;93,000
366,42;147,00
367,01;265,00
367,60;348,00
368,19;263,00
368,78;152,00
369,37;208,00
369,95;517,00
370,54;735,00
371,13;697,00
371,72;695,00
372,31;746,00
372,90;771,00
373,49;907,00
374,08;1080,0
374,67;1822,0
375,26;2453,0
375,85;2347,0
376,44;2526,0
377,03;2282,0
377,61;2139,0
378,20;2010,0
378,79;2067,0
379,38;2151,0
379,97;3614,0
380,56;3723,0
381,15;3783,0
381,74;3474,0
382,33;3387,0
382,91;2890,0
383,50;2150,0
384,09;870,00
384,68;234,00
385,27;85,000
385,86;100,000
386,45;111,00
387,03;227,00
387,62;122,00
388,21;137,00
388,80;134,00
389,39;245,00
389,98;251,00
390,57;230,00
391,15;304,00
391,74;261,00
392,33;302,00
392,92;279,00
393,51;413,00
394,09;517,00
394,68;498,00
395,27;430,00
395,86;452,00
396,45;574,00
397,03;583,00
397,62;491,00
398,21;579,00
398,80;912,00
399,39;1323,0
399,97;1514,0
400,56;1341,0
401,15;1337,0
401,74;1402,0
402,32;1131,0
402,91;986,00
403,50;519,00
404,09;536,00
404,67;883,00
405,26;1440,0
405,85;1610,0
406,44;1731,0
407,02;1710,0
407,61;1556,0
408,20;1373,0
408,78;1235,0
409,37;712,00
409,96;328,00
410,55;183,00
411,13;209,00
411,72;170,00
412,31;219,00
412,89;151,00
413,48;217,00
414,07;259,00
414,65;139,00
415,24;270,00
415,83;180,00
416,42;255,00
417,00;232,00
417,59;165,00
418,18;96,000
418,76;258,00
419,35;376,00
419,94;556,00
420,52;489,00
421,11;664,00
421,69;459,00
422,28;478,00
422,87;446,00
423,45;317,00
424,04;313,00
424,63;247,00
425,21;364,00
425,80;527,00
426,38;828,00
426,97;924,00
427,56;755,00
428,14;963,00
428,73;762,00
429,31;840,00
429,90;676,00
430,49;357,00
431,07;179,00
431,66;195,00
432,24;250,00
432,83;350,00
433,42;399,00
434,00;583,00
434,59;703,00
435,17;695,00
435,76;709,00
436,34;701,00
436,93;473,00
437,51;527,00
438,10;198,00
438,69;160,00
439,27;103,00
439,86;117,00
440,44;150,00
441,03;99,000
441,61;102,00
442,20;297,00
442,78;227,00
443,37;150,00
443,95;189,00
444,54;106,00
445,12;-3,0000
445,71;-13,000
446,29;33,000
446,88;67,000
447,46;132,00
448,05;227,00
448,63;331,00
449,22;218,00
449,80;233,00
450,39;200,00
450,97;105,00
451,56;118,00
452,14;61,000
452,72;124,00
453,31;57,000
453,89;4,0000
454,48;26,000
455,06;116,00
455,65;183,00
456,23;189,00
456,81;310,00
457,40;371,00
457,98;317,00
458,57;346,00
459,15;309,00
459,74;301,00
460,32;213,00
460,90;92,000
461,49;155,00
462,07;139,00
462,66;183,00
463,24;103,00
463,82;156,00
464,41;191,00
464,99;200,00
465,57;138,00
466,16;142,00
466,74;299,00
467,33;291,00
467,91;178,00
468,49;162,00
469,08;186,00
469,66;174,00
470,24;172,00
470,83;53,000
471,41;103,00
471,99;132,00
472,58;116,00
473,16;99,000
473,74;54,000
474,33;164,00
474,91;142,00
475,49;56,000
476,08;7,0000
476,66;67,000
477,24;126,00
477,82;51,000
478,41;80,000
478,99;124,00
479,57;109,00
480,16;75,000
480,74;148,00
481,32;247,00
481,90;180,00
482,49;36,000
483,07;185,00
483,65;279,00
484,23;95,000
484,82;91,000
485,40;75,000
485,98;148,00
486,56;116,00
487,15;265,00
487,73;72,000
488,31;136,00
488,89;140,00
489,47;106,00
490,06;127,00
490,64;143,00
491,22;204,00
491,80;131,00
492,39;204,00
492,97;129,00
493,55;63,000
494,13;21,000
494,71;29,000
495,29;86,000
495,88;74,000
496,46;48,000
497,04;52,000
497,62;10,0000
498,20;91,000
498,78;138,00
499,37;59,000
499,95;41,000
500,53;34,000
501,11;120,00
501,69;203,00
502,27;92,000
502,85;100,000
503,44;25,000
504,02;110,00
504,60;192,00
505,18;58,000
505,76;59,000
506,34;78,000
506,92;82,000
507,50;177,00
508,08;50,000
508,67;135,00
509,25;67,000
509,83;88,000
510,41;65,000
510,99;65,000
511,57;36,000
512,15;24,000
512,73;-23,000
513,31;57,000
513,89;11,000
514,47;123,00
515,05;60,000
515,63;61,000
516,21;163,00
516,79;30,000
517,38;106,00
517,96;-6,0000
518,54;15,000
519,12;122,00
519,70;97,000
520,28;168,00
520,86;186,00
521,44;40,000
522,02;74,000
522,60;202,00
523,18;192,00
523,76;31,000
524,34;141,00
524,92;3,0000
525,50;24,000
526,08;111,00
526,66;51,000
527,24;83,000
527,82;23,000
528,39;170,00
528,97;47,000
529,55;90,000
530,13;138,00
530,71;85,000
531,29;79,000
531,87;-11,000
532,45;26,000
533,03;21,000
533,61;183,00
534,19;122,00
534,77;79,000
535,35;40,000
535,93;101,00
536,51;92,000
537,08;176,00
537,66;97,000
538,24;119,00
538,82;169,00
539,40;91,000
539,98;65,000
540,56;153,00
541,14;146,00
541,72;80,000
542,29;95,000
542,87;186,00
543,45;127,00
544,03;255,00
544,61;263,00
545,19;122,00
545,77;146,00
546,34;209,00
546,92;172,00
547,50;169,00
548,08;121,00
548,66;263,00
549,23;242,00
549,81;61,000
550,39;56,000
550,97;93,000
551,55;59,000
552,13;210,00
552,70;132,00
553,28;10,0000
553,86;36,000
554,44;137,00
555,01;120,00
555,59;86,000
556,17;25,000
556,75;95,000
557,33;58,000
557,90;184,00
558,48;163,00
559,06;129,00
559,64;48,000
560,21;14,000
560,79;100,000
561,37;94,000
561,95;6,0000
562,52;140,00
563,10;44,000
563,68;97,000
564,25;78,000
564,83;11,000
565,41;102,00
565,99;45,000
566,56;29,000
567,14;81,000
567,72;235,00
568,29;85,000
568,87;126,00
569,45;112,00
570,02;57,000
570,60;72,000
571,18;193,00
571,75;99,000
572,33;109,00
572,91;20,000
573,48;82,000
574,06;-72,000
574,64;281,00
575,21;98,000
575,79;93,000
576,37;154,00
576,94;129,00
577,52;75,000
578,09;116,00
578,67;109,00
579,25;141,00
579,82;60,000
580,40;267,00
580,97;199,00
581,55;104,00
582,13;91,000
582,70;161,00
583,28;83,000
583,85;53,000
584,43;95,000
585,01;121,00
585,58;176,00
586,16;82,000
586,73;194,00
587,31;99,000
587,88;122,00
588,46;171,00
589,03;138,00
589,61;197,00
590,18;76,000
590,76;119,00
591,34;44,000
591,91;131,00
592,49;38,000
593,06;231,00
593,64;73,000
594,21;104,00
594,79;137,00
595,36;149,00
595,94;171,00
596,51;104,00
597,09;122,00
597,66;132,00
598,24;91,000
598,81;185,00
599,38;185,00
599,96;178,00
600,53;24,000
601,11;82,000
601,68;189,00
602,26;143,00
602,83;200,00
603,41;156,00
603,98;146,00
604,56;51,000
605,13;133,00
605,70;138,00
606,28;2,0000
606,85;57,000
607,43;34,000
608,00;86,000
608,57;189,00
609,15;57,000
609,72;82,000
610,30;189,00
610,87;195,00
611,44;170,00
612,02;250,00
612,59;201,00
613,16;227,00
613,74;246,00
614,31;235,00
614,89;185,00
615,46;163,00
616,03;210,00
616,61;58,000
617,18;148,00
617,75;77,000
618,33;-18,000
618,90;129,00
619,47;137,00
620,05;29,000
620,62;140,00
621,19;78,000
621,77;113,00
622,34;160,00
622,91;133,00
623,48;141,00
624,06;124,00
624,63;166,00
625,20;93,000
625,78;175,00
626,35;84,000
626,92;153,00
627,49;-50,000
628,07;118,00
628,64;16,000
629,21;73,000
629,78;127,00
630,36;42,000
630,93;120,00
631,50;72,000
632,07;77,000
632,65;16,000
633,22;18,000
633,79;64,000
634,36;110,00
634,93;39,000
635,51;131,00
636,08;48,000
636,65;124,00
637,22;70,000
637,79;185,00
638,37;17,000
638,94;103,00
639,51;91,000
640,08;150,00
640,65;96,000
641,22;76,000
641,80;150,00
642,37;-118,00
642,94;97,000
643,51;116,00
644,08;167,00
644,65;70,000
645,22;72,000
645,80;168,00
646,37;110,00
646,94;90,000
647,51;118,00
648,08;193,00
648,65;51,000
649,22;196,00
649,79;93,000
650,36;284,00
650,93;118,00
651,51;110,00
652,08;82,000
652,65;165,00
653,22;147,00
653,79;202,00
654,36;103,00
654,93;148,00
655,50;184,00
656,07;125,00
656,64;66,000
657,21;101,00
657,78;16,000
658,35;27,000
658,92;186,00
659,49;206,00
660,06;104,00
660,63;151,00
661,20;128,00
661,77;112,00
662,34;339,00
662,91;292,00
663,48;201,00
664,05;198,00
664,62;102,00
665,19;126,00
665,76;145,00
666,33;181,00
666,90;128,00
667,47;179,00
668,04;178,00
668,61;141,00
669,18;127,00
669,75;107,00
670,32;230,00
670,89;184,00
671,46;172,00
672,03;168,00
672,60;187,00
673,17;181,00
673,74;128,00
674,30;188,00
674,87;232,00
675,44;204,00
676,01;154,00
676,58;148,00
677,15;199,00
677,72;169,00
678,29;115,00
678,86;120,00
679,42;224,00
679,99;133,00
680,56;186,00
681,13;195,00
681,70;103,00
682,27;135,00
682,84;139,00
683,40;125,00
683,97;7,0000
684,54;152,00
685,11;52,000
685,68;115,00
686,25;147,00
686,81;223,00
687,38;189,00
687,95;193,00
688,52;169,00
689,09;34,000
689,65;67,000
690,22;85,000
690,79;138,00
691,36;96,000
691,92;39,000
692,49;47,000
693,06;89,000
693,63;66,000
694,20;181,00
694,76;42,000
695,33;122,00
695,90;50,000
696,47;184,00
697,03;131,00
697,60;2,0000
698,17;88,000
698,73;53,000
699,30;219,00
699,87;139,00
700,44;75,000
701,00;34,000
701,57;81,000
702,14;72,000
702,70;65,000
703,27;43,000
703,84;65,000
704,40;95,000
704,97;96,000
705,54;85,000
706,10;143,00
706,67;69,000
707,24;50,000
707,80;-53,000
708,37;203,00
708,94;145,00
709,50;13,000
710,07;19,000
710,64;111,00
711,20;96,000
711,77;117,00
712,33;112,00
712,90;24,000
713,47;200,00
714,03;90,000
714,60;-341,00
715,16;51,000
715,73;66,000
716,30;70,000
716,86;68,000
717,43;65,000
717,99;16,000
718,56;20,000
719,12;-33,000
719,69;79,000
720,26;180,00
720,82;131,00
721,39;59,000
721,95;140,00
722,52;69,000
723,08;-11,000
723,65;215,00
724,21;72,000
724,78;154,00
725,34;146,00
725,91;175,00
726,47;92,000
727,04;159,00
727,60;148,00
728,17;83,000
728,73;166,00
729,30;245,00
729,86;152,00
730,43;62,000
730,99;130,00
731,56;252,00
732,12;119,00
732,68;87,000
733,25;127,00
733,81;159,00
734,38;154,00
734,94;170,00
735,51;82,000
736,07;79,000
736,63;123,00
737,20;127,00
737,76;285,00
738,33;236,00
738,89;159,00
739,46;82,000
740,02;138,00
740,58;100,000
741,15;186,00
741,71;166,00
742,27;103,00
742,84;-43,000
743,40;74,000
743,97;79,000
744,53;87,000
745,09;154,00
745,66;107,00
746,22;92,000
746,78;5,0000
747,35;138,00
747,91;179,00
748,47;115,00
749,04;143,00
749,60;155,00
750,16;162,00
750,72;232,00
751,29;67,000
751,85;92,000
752,41;100,000
752,98;93,000
753,54;48,000
754,10;115,00
754,66;112,00
755,23;131,00
755,79;63,000
756,35;140,00
756,91;108,00
757,48;116,00
758,04;71,000
758,60;115,00
759,16;134,00
759,73;90,000
760,29;72,000
760,85;138,00
761,41;139,00
761,98;207,00
762,54;98,000
763,10;29,000
763,66;146,00
764,22;114,00
764,79;29,000
765,35;21,000
765,91;130,00
766,47;73,000
767,03;157,00
767,59;129,00
768,16;140,00
768,72;79,000
769,28;84,000
769,84;168,00
770,40;68,000
770,96;114,00
771,52;228,00
772,09;257,00
772,65;101,00
773,21;69,000
773,77;134,00
774,33;228,00
774,89;95,000
775,45;216,00
776,01;95,000
776,57;209,00
777,13;157,00
777,70;62,000
778,26;146,00
778,82;135,00
779,38;133,00
779,94;60,000
780,50;103,00
781,06;-42,000
781,62;136,00
782,18;27,000
782,74;63,000
783,30;135,00
783,86;104,00
784,42;150,00
784,98;47,000
785,54;227,00
786,10;138,00
786,66;146,00
787,22;45,000
787,78;140,00
788,34;63,000
788,90;111,00
789,46;86,000
790,02;73,000
790,58;82,000
791,14;167,00
791,70;112,00
792,26;76,000
792,82;55,000
793,38;56,000
793,94;-16,000
794,50;115,00
795,06;131,00
795,62;165,00
796,17;75,000
796,73;-12,000
797,29;60,000
797,85;130,00
798,41;70,000
798,97;7,0000
799,53;27,000
800,09;62,000
800,65;105,00
801,21;45,000
801,76;48,000
802,32;136,00
802,88;66,000
803,44;129,00
804,00;105,00
804,56;112,00
805,12;91,000
805,67;133,00
806,23;23,000
806,79;36,000
807,35;85,000
807,91;84,000
808,46;117,00
809,02;-22,000
809,58;97,000
810,14;130,00
810,70;39,000
811,26;75,000
811,81;117,00
812,37;133,00
812,93;121,00
813,49;46,000
814,04;-7,0000
814,60;150,00
815,16;47,000
815,72;56,000
816,27;41,000
816,83;82,000
817,39;65,000
817,95;144,00
818,50;31,000
819,06;120,00
819,62;41,000
820,18;7,0000
820,73;190,00
821,29;83,000
821,85;124,00
822,40;-21,000
822,96;-27,000
823,52;64,000
824,07;-143,00
824,63;61,000
825,19;139,00
825,74;49,000
826,30;48,000
826,86;55,000
827,41;38,000
827,97;40,000
828,53;48,000
829,08;89,000
829,64;13,000
830,20;10,0000
830,75;6,0000
831,31;34,000
831,86;6,0000
832,42;65,000
832,98;95,000
833,53;6,0000
834,09;43,000
834,64;132,00
835,20;28,000
835,76;-23,000
836,31;94,000
836,87;88,000
837,42;122,00
837,98;-63,000
838,53;34,000
839,09;-56,000
839,64;-4,0000
840,20;29,000
840,75;24,000
841,31;72,000
841,87;151,00
842,42;-54,000
842,98;99,000
843,53;129,00
844,09;-1,0000
844,64;26,000
845,20;149,00
845,75;53,000
846,31;72,000
846,86;51,000
847,41;-54,000
847,97;56,000
848,52;165,00
849,08;79,000
849,63;49,000
850,19;74,000
850,74;17,000
851,30;31,000
851,85;113,00
852,41;-3,0000
852,96;3,0000
853,51;117,00
854,07;87,000
854,62;46,000
855,18;5,0000
855,73;2,0000
856,28;-2,0000
856,84;94,000
857,39;-5,0000
857,95;127,00
858,50;4,0000
859,05;197,00
859,61;61,000
860,16;119,00
860,71;111,00
861,27;0
861,82;192,00
862,37;136,00
862,93;63,000
863,48;27,000
864,03;105,00
864,59;-54,000
865,14;-14,000
865,69;94,000
866,25;75,000
866,80;-456,00
867,35;27,000
867,90;154,00
868,46;99,000
869,01;12,000
869,56;70,000
870,12;54,000
870,67;-24,000
871,22;120,00
871,77;42,000
872,33;94,000
872,88;52,000
873,43;22,000
873,98;146,00
874,54;92,000
875,09;-18,000
875,64;-28,000
876,19;117,00
876,74;-2,0000
877,30;93,000
877,85;-15,000
878,40;103,00
878,95;39,000
879,50;64,000
880,06;111,00
880,61;31,000
881,16;39,000
881,71;112,00
882,26;55,000
882,81;104,00
883,37;120,00
883,92;20,000
884,47;129,00
885,02;42,000
885,57;70,000
886,12;48,000
886,67;47,000
887,22;169,00
887,78;79,000
888,33;80,000
888,88;19,000
889,43;60,000
889,98;64,000
890,53;25,000
891,08;51,000
891,63;36,000
892,18;126,00
892,73;67,000
893,28;31,000
893,83;110,00
894,38;44,000
894,93;80,000
895,48;-1,0000
896,03;63,000
896,59;90,000
897,14;24,000
897,69;7,0000
898,24;138,00
898,79;96,000
899,34;-32,000
899,89;52,000
900,44;-50,000
900,99;88,000
901,53;-88,000
902,08;-5,0000
902,63;138,00
903,18;25,000
903,73;97,000
904,28;40,000
904,83;11,000
905,38;92,000
905,93;-87,000
906,48;29,000
907,03;73,000
907,58;-3,0000
908,13;16,000
908,68;87,000
909,23;60,000
909,78;46,000
910,32;7,0000
910,87;80,000
911,42;75,000
911,97;-38,000
912,52;37,000
913,07;78,000
913,62;30,000
914,17;48,000
914,71;-9,0000
915,26;76,000
915,81;-2,0000
916,36;14,000
916,91;16,000
917,46;57,000
918,00;36,000
918,55;116,00
919,10;51,000
919,65;67,000
920,20;58,000
920,74;81,000
921,29;-75,000
921,84;-7,0000
922,39;51,000
922,94;88,000
923,48;143,00
924,03;-10,0000
924,58;103,00
925,13;100,000
925,67;91,000
926,22;2,0000
926,77;36,000
927,32;-38,000
927,86;-43,000
928,41;43,000
928,96;30,000
929,50;-76,000
930,05;52,000
930,60;99,000
931,15;22,000
931,69;144,00
932,24;18,000
932,79;53,000
933,33;-23,000
933,88;42,000
934,43;113,00
934,97;80,000
935,52;36,000
936,07;61,000
936,61;16,000
937,16;134,00
937,71;-81,000
938,25;181,00
938,80;164,00
939,34;36,000
939,89;114,00
940,44;113,00
940,98;13,000
941,53;73,000
942,07;23,000
942,62;43,000
943,17;-21,000
943,71;139,00
944,26;-6,0000
944,80;91,000
945,35;92,000
945,89;66,000
946,44;117,00
946,99;-9,0000
947,53;32,000
948,08;30,000
948,62;-6,0000
949,17;37,000
949,71;12,000
950,26;36,000
950,80;-24,000
951,35;-33,000
951,89;70,000
952,44;25,000
952,98;44,000
953,53;39,000
954,07;66,000
954,62;14,000
955,16;57,000
955,71;27,000
956,25;37,000
956,79;87,000
957,34;29,000
957,88;34,000
958,43;37,000
958,97;-40,000
959,52;30,000
960,06;57,000
960,60;70,000
961,15;80,000
961,69;-2,0000
962,24;147,00
962,78;72,000
963,32;71,000
963,87;11,000
964,41;96,000
964,96;62,000
965,50;-42,000
966,04;-1,0000
966,59;67,000
967,13;43,000
967,67;14,000
968,22;140,00
968,76;72,000
969,30;63,000
969,85;-199,00
970,39;40,000
970,93;118,00
971,47;12,000
972,02;61,000
972,56;42,000
973,10;66,000
973,65;84,000
974,19;17,000
974,73;68,000
975,27;96,000
975,82;53,000
976,36;79,000
976,90;150,00
977,44;-11,000
977,99;33,000
978,53;94,000
979,07;121,00
979,61;44,000
980,16;152,00
980,70;39,000
981,24;37,000
981,78;-52,000
982,32;73,000
982,87;-213,00
983,41;34,000
983,95;10,0000
984,49;62,000
985,03;76,000
985,57;11,000
986,12;-1,0000
986,66;26,000
987,20;34,000
987,74;13,000
988,28;16,000
988,82;22,000
989,36;87,000
989,91;76,000
990,45;13,000
990,99;47,000
991,53;68,000
992,07;-25,000
992,61;67,000
993,15;109,00
993,69;72,000
994,23;97,000
994,77;28,000
995,31;-1,0000
995,86;29,000
996,40;-65,000
996,94;70,000
997,48;124,00
998,02;102,00
998,56;30,000
999,10;164,00
999,64;95,000
1000,18;39,000
1000,72;146,00
1001,26;138,00
1001,80;77,000
1002,34;30,000
1002,88;25,000
1003,42;105,00
1003,96;6,0000
1004,50;100,000
1005,04;-39,000
1005,58;42,000
1006,12;63,000
1006,66;49,000
1007,20;23,000
1007,73;61,000
1008,27;-2,0000
1008,81;135,00
1009,35;45,000
1009,89;-9,0000
1010,43;-29,000
1010,97;72,000
1011,51;41,000
1012,05;-2,0000
1012,59;77,000
1013,13;48,000
1013,66;52,000
1014,20;37,000
1014,74;100,000
1015,28;-31,000
1015,82;23,000
1016,36;60,000
1016,90;55,000
1017,43;43,000
1017,97;248,00
1018,51;0
1019,05;97,000
1019,59;15,000
1020,13;89,000
1020,66;176,00
1021,20;-66,000
1021,74;21,000
1022,28;88,000
1022,81;192,00
1023,35;30,000
1023,89;53,000
1024,43;-17,000
1024,97;-47,000
1025,50;69,000
1026,04;-54,000
1026,58;-10,0000
1027,12;20,000
1027,65;18,000
1028,19;43,000
1028,73;48,000
1029,26;112,00
1029,80;108,00
1030,34;25,000
1030,88;-8,0000
1031,41;65,000
1031,95;37,000
1032,49;51,000
1033,02;47,000
1033,56;-42,000
1034,10;-6,0000
1034,63;39,000
1035,17;25,000
1035,71;34,000
1036,24;89,000
1036,78;19,000
1037,32;43,000
1037,85;33,000
1038,39;23,000
1038,92;-16,000
1039,46;-9,0000
1040,00;79,000
1040,53;35,000
1041,07;51,000
1041,60;69,000
1042,14;52,000
1042,68;79,000
1043,21;68,000
1043,75;-64,000
1044,28;53,000
1044,82;32,000
1045,35;54,000
1045,89;24,000
1046,42;31,000
1046,96;33,000
1047,49;120,00
1048,03;-14,000
1048,57;65,000
1049,10;18,000
1049,64;-161,00
1050,17;13,000
1050,70;5,0000
1051,24;84,000
1051,77;106,00
1052,31;-33,000
1052,84;52,000
1053,38;149,00
1053,91;51,000
1054,45;31,000
1054,98;63,000
1055,52;86,000
1056,05;28,000
1056,59;88,000
1057,12;-31,000
1057,65;17,000
1058,19;-25,000
1058,72;25,000
1059,26;21,000
1059,79;130,00
1060,32;10,0000
1060,86;24,000
1061,39;6,0000
1061,93;-11,000
1062,46;-26,000
1062,99;71,000
1063,53;104,00
1064,06;17,000
1064,59;55,000
1065,13;-22,000
1065,66;14,000
1066,19;122,00
1066,73;-10,0000
1067,26;120,00
1067,79;34,000
1068,33;59,000
1068,86;127,00
1069,39;29,000
1069,92;71,000
1070,46;19,000
1070,99;-28,000
1071,52;66,000
1072,05;13,000
1072,59;119,00
1073,12;58,000
1073,65;-33,000
1074,18;-67,000
1074,72;60,000
1075,25;24,000
1075,78;16,000
1076,31;99,000
1076,85;12,000
1077,38;25,000
1077,91;40,000
1078,44;59,000
1078,97;76,000
1079,51;96,000
1080,04;64,000
1080,57;21,000
1081,10;-50,000
1081,63;17,000
1082,16;81,000
1082,70;117,00
1083,23;158,00
1083,76;47,000
1084,29;-19,000
1084,82;-31,000
1085,35;21,000
1085,88;29,000
1086,41;63,000
1086,94;123,00
1087,48;56,000
1088,01;-3,0000
1088,54;81,000
1089,07;100,000
1089,60;36,000
1090,13;-16,000
1090,66;-115,00
1091,19;130,00
1091,72;78,000
1092,25;38,000
1092,78;11,000
1093,31;-76,000
1093,84;126,00
1094,37;17,000
1094,90;-70,000
1095,43;34,000
1095,96;36,000
1096,49;-84,000
1097,02;67,000
1097,55;65,000
1098,08;2,0000
1098,61;58,000
1099,14;66,000
1099,67;157,00
1100,20;151,00
