M- 18 del, 5, sur
Integration time: 5000 ms
Average: 1 scans
Nr of pixels used for smoothing: 0
Data measured with spectrometer serial number: 0604021S1
Wave   ;Sample
[nm]   ;[counts]
173,70;-308,00
174,30;-14,000
174,90;49,000
175,50;85,000
176,10;2,0000
176,70;45,000
177,30;30,000
177,90;-25,000
178,50;-10,0000
179,10;-20,000
179,70;-3,0000
180,30;26,000
180,89;-46,000
181,49;31,000
182,09;30,000
182,69;-33,000
183,29;24,000
183,89;25,000
184,49;-40,000
185,09;104,00
185,69;64,000
186,29;-61,000
186,89;42,000
187,48;49,000
188,08;-3,0000
188,68;-28,000
189,28;-103,00
189,88;5,0000
190,48;-46,000
191,08;-67,000
191,68;30,000
192,28;63,000
192,87;61,000
193,47;-11,000
194,07;31,000
194,67;-44,000
195,27;53,000
195,87;-16,000
196,47;76,000
197,06;15,000
197,66;42,000
198,26;28,000
198,86;31,000
199,46;10,0000
200,06;-50,000
200,66;13,000
201,25;62,000
201,85;13,000
202,45;8,0000
203,05;6,0000
203,65;-43,000
204,24;-42,000
204,84;49,000
205,44;-14,000
206,04;-23,000
206,64;-9,0000
207,24;8,0000
207,83;-49,000
208,43;4,0000
209,03;-16,000
209,63;-56,000
210,22;6,0000
210,82;110,00
211,42;65,000
212,02;158,00
212,62;-5,0000
213,21;-13,000
213,81;-15,000
214,41;-54,000
215,01;-66,000
215,60;41,000
216,20;140,00
216,80;38,000
217,40;-3,0000
218,00;9,0000
218,59;-138,00
219,19;37,000
219,79;11,000
220,38;60,000
220,98;24,000
221,58;8,0000
222,18;42,000
222,77;-73,000
223,37;-50,000
223,97;-105,00
224,57;-4,0000
225,16;91,000
225,76;2,0000
226,36;4,0000
226,95;-45,000
227,55;-12,000
228,15;11,000
228,75;-172,00
229,34;-55,000
229,94;-28,000
230,54;-99,000
231,13;4,0000
231,73;75,000
232,33;-57,000
232,92;53,000
233,52;-39,000
234,12;38,000
234,71;35,000
235,31;64,000
235,91;51,000
236,50;-34,000
237,10;64,000
237,70;26,000
238,29;-2,0000
238,89;-53,000
239,49;-10,0000
240,08;-8,0000
240,68;-27,000
241,28;-46,000
241,87;-3,0000
242,47;-67,000
243,06;-100,000
243,66;16,000
244,26;85,000
244,85;97,000
245,45;0
246,05;33,000
246,64;-25,000
247,24;26,000
247,83;-70,000
248,43;-24,000
249,03;-111,00
249,62;-44,000
250,22;-4,0000
250,81;-72,000
251,41;-50,000
252,01;-23,000
252,60;41,000
253,20;24,000
253,79;38,000
254,39;-115,00
254,98;65,000
255,58;-45,000
256,18;7,0000
256,77;18,000
257,37;-12,000
257,96;-83,000
258,56;15,000
259,15;51,000
259,75;-97,000
260,34;40,000
260,94;-43,000
261,53;258,00
262,13;-29,000
262,73;-75,000
263,32;55,000
263,92;79,000
264,51;-19,000
265,11;-10,0000
265,70;0
266,30;-45,000
266,89;102,00
267,49;-48,000
268,08;-57,000
268,68;-51,000
269,27;40,000
269,87;-10,0000
270,46;49,000
271,06;36,000
271,65;169,00
272,25;18,000
272,84;51,000
273,44;-24,000
274,03;4,0000
274,62;107,00
275,22;-78,000
275,81;-39,000
276,41;43,000
277,00;36,000
277,60;110,00
278,19;76,000
278,79;-25,000
279,38;-3,0000
279,98;33,000
280,57;113,00
281,16;-53,000
281,76;56,000
282,35;65,000
282,95;71,000
283,54;5,0000
284,14;-72,000
284,73;-50,000
285,32;-70,000
285,92;-21,000
286,51;-20,000
287,11;-18,000
287,70;117,00
288,29;45,000
288,89;109,00
289,48;92,000
290,08;32,000
290,67;-82,000
291,26;36,000
291,86;62,000
292,45;62,000
293,04;16,000
293,64;7,0000
294,23;-39,000
294,83;39,000
295,42;-5,0000
296,01;30,000
296,61;-40,000
297,20;25,000
297,79;109,00
298,39;180,00
298,98;33,000
299,57;-17,000
300,17;-41,000
300,76;3,0000
301,35;-73,000
301,95;131,00
302,54;0
303,13;-10,0000
303,73;-32,000
304,32;89,000
304,91;31,000
305,51;82,000
306,10;-41,000
306,69;42,000
307,28;97,000
307,88;-20,000
308,47;13,000
309,06;6,0000
309,66;-16,000
310,25;102,00
310,84;60,000
311,43;28,000
312,03;62,000
312,62;99,000
313,21;183,00
313,81;200,00
314,40;294,00
314,99;391,00
315,58;304,00
316,18;429,00
316,77;379,00
317,36;294,00
317,95;240,00
318,54;287,00
319,14;112,00
319,73;20,000
320,32;37,000
320,91;-13,000
321,51;93,000
322,10;102,00
322,69;79,000
323,28;128,00
323,87;112,00
324,47;95,000
325,06;17,000
325,65;98,000
326,24;45,000
326,83;244,00
327,43;145,00
328,02;196,00
328,61;172,00
329,20;176,00
329,79;222,00
330,39;254,00
330,98;261,00
331,57;217,00
332,16;208,00
332,75;262,00
333,34;301,00
333,93;171,00
334,53;408,00
335,12;610,00
335,71;1070,0
336,30;1756,0
336,89;2530,0
337,48;2545,0
338,07;2478,0
338,67;2298,0
339,26;2118,0
339,85;1835,0
340,44;1108,0
341,03;377,00
341,62;159,00
342,21;140,00
342,80;138,00
343,39;88,000
343,99;108,00
344,58;46,000
345,17;73,000
345,76;116,00
346,35;206,00
346,94;281,00
347,53;195,00
348,12;132,00
348,71;316,00
349,30;352,00
349,89;365,00
350,48;475,00
351,07;532,00
351,66;586,00
352,26;733,00
352,85;1143,0
353,44;1499,0
354,03;1688,0
354,62;1638,0
355,21;1687,0
355,80;1790,0
356,39;2500,0
356,98;3364,0
357,57;3570,0
358,16;3488,0
358,75;3438,0
359,34;3100,0
359,93;2778,0
360,52;2180,0
361,11;1337,0
361,70;408,00
362,29;267,00
362,88;301,00
363,47;274,00
364,06;279,00
364,65;421,00
365,24;258,00
365,83;394,00
366,42;374,00
367,01;493,00
367,60;510,00
368,19;461,00
368,78;558,00
369,37;609,00
369,95;721,00
370,54;832,00
371,13;812,00
371,72;847,00
372,31;859,00
372,90;913,00
373,49;1015,0
374,08;1100,0
374,67;1467,0
375,26;1687,0
375,85;1647,0
376,44;1615,0
377,03;1644,0
377,61;1574,0
378,20;1472,0
378,79;1486,0
379,38;1329,0
379,97;2089,0
380,56;2197,0
381,15;2177,0
381,74;2146,0
382,33;2033,0
382,91;1801,0
383,50;1519,0
384,09;1088,0
384,68;985,00
385,27;1006,0
385,86;1123,0
386,45;1121,0
387,03;1321,0
387,62;1138,0
388,21;1247,0
388,80;1188,0
389,39;1295,0
389,98;1090,0
390,57;1066,0
391,15;1014,0
391,74;1034,0
392,33;810,00
392,92;868,00
393,51;849,00
394,09;857,00
394,68;854,00
395,27;786,00
395,86;749,00
396,45;829,00
397,03;829,00
397,62;694,00
398,21;678,00
398,80;1035,0
399,39;1152,0
399,97;1269,0
400,56;1187,0
401,15;1054,0
401,74;1092,0
402,32;1105,0
402,91;967,00
403,50;719,00
404,09;857,00
404,67;1001,0
405,26;1206,0
405,85;1334,0
406,44;1285,0
407,02;1413,0
407,61;1316,0
408,20;1177,0
408,78;1274,0
409,37;864,00
409,96;781,00
410,55;863,00
411,13;716,00
411,72;723,00
412,31;744,00
412,89;943,00
413,48;835,00
414,07;839,00
414,65;915,00
415,24;1037,0
415,83;897,00
416,42;908,00
417,00;875,00
417,59;970,00
418,18;804,00
418,76;987,00
419,35;1052,0
419,94;1127,0
420,52;1174,0
421,11;1014,0
421,69;1121,0
422,28;1012,0
422,87;922,00
423,45;985,00
424,04;954,00
424,63;859,00
425,21;1003,0
425,80;968,00
426,38;1154,0
426,97;1329,0
427,56;1014,0
428,14;1112,0
428,73;992,00
429,31;880,00
429,90;899,00
430,49;650,00
431,07;657,00
431,66;616,00
432,24;456,00
432,83;647,00
433,42;648,00
434,00;823,00
434,59;941,00
435,17;1014,0
435,76;990,00
436,34;995,00
436,93;955,00
437,51;904,00
438,10;1142,0
438,69;627,00
439,27;523,00
439,86;426,00
440,44;449,00
441,03;489,00
441,61;612,00
442,20;586,00
442,78;582,00
443,37;604,00
443,95;539,00
444,54;615,00
445,12;575,00
445,71;350,00
446,29;579,00
446,88;554,00
447,46;449,00
448,05;613,00
448,63;581,00
449,22;508,00
449,80;562,00
450,39;448,00
450,97;314,00
451,56;332,00
452,14;446,00
452,72;325,00
453,31;409,00
453,89;422,00
454,48;395,00
455,06;501,00
455,65;387,00
456,23;359,00
456,81;426,00
457,40;451,00
457,98;324,00
458,57;457,00
459,15;401,00
459,74;327,00
460,32;511,00
460,90;389,00
461,49;455,00
462,07;503,00
462,66;650,00
463,24;614,00
463,82;725,00
464,41;555,00
464,99;646,00
465,57;630,00
466,16;632,00
466,74;655,00
467,33;511,00
467,91;530,00
468,49;510,00
469,08;462,00
469,66;409,00
470,24;411,00
470,83;408,00
471,41;406,00
471,99;460,00
472,58;406,00
473,16;354,00
473,74;292,00
474,33;358,00
474,91;164,00
475,49;303,00
476,08;270,00
476,66;349,00
477,24;399,00
477,82;444,00
478,41;295,00
478,99;414,00
479,57;421,00
480,16;393,00
480,74;502,00
481,32;420,00
481,90;561,00
482,49;537,00
483,07;580,00
483,65;689,00
484,23;591,00
484,82;551,00
485,40;674,00
485,98;748,00
486,56;773,00
487,15;862,00
487,73;893,00
488,31;914,00
488,89;722,00
489,47;876,00
490,06;753,00
490,64;721,00
491,22;732,00
491,80;537,00
492,39;565,00
492,97;544,00
493,55;491,00
494,13;410,00
494,71;428,00
495,29;424,00
495,88;388,00
496,46;278,00
497,04;373,00
497,62;236,00
498,20;256,00
498,78;290,00
499,37;366,00
499,95;540,00
500,53;623,00
501,11;684,00
501,69;651,00
502,27;587,00
502,85;627,00
503,44;557,00
504,02;488,00
504,60;423,00
505,18;374,00
505,76;282,00
506,34;312,00
506,92;249,00
507,50;277,00
508,08;283,00
508,67;228,00
509,25;307,00
509,83;242,00
510,41;190,00
510,99;214,00
511,57;138,00
512,15;202,00
512,73;206,00
513,31;215,00
513,89;84,000
514,47;161,00
515,05;192,00
515,63;259,00
516,21;277,00
516,79;244,00
517,38;229,00
517,96;299,00
518,54;189,00
519,12;299,00
519,70;186,00
520,28;249,00
520,86;260,00
521,44;258,00
522,02;404,00
522,60;352,00
523,18;205,00
523,76;230,00
524,34;70,000
524,92;251,00
525,50;192,00
526,08;215,00
526,66;292,00
527,24;174,00
527,82;136,00
528,39;265,00
528,97;102,00
529,55;181,00
530,13;152,00
530,71;222,00
531,29;188,00
531,87;337,00
532,45;153,00
533,03;170,00
533,61;170,00
534,19;276,00
534,77;199,00
535,35;265,00
535,93;298,00
536,51;182,00
537,08;-7,0000
537,66;261,00
538,24;214,00
538,82;130,00
539,40;238,00
539,98;190,00
540,56;171,00
541,14;193,00
541,72;128,00
542,29;238,00
542,87;165,00
543,45;268,00
544,03;173,00
544,61;274,00
545,19;142,00
545,77;159,00
546,34;348,00
546,92;296,00
547,50;324,00
548,08;259,00
548,66;304,00
549,23;290,00
549,81;165,00
550,39;75,000
550,97;253,00
551,55;189,00
552,13;201,00
552,70;124,00
553,28;211,00
553,86;263,00
554,44;208,00
555,01;174,00
555,59;184,00
556,17;168,00
556,75;332,00
557,33;190,00
557,90;307,00
558,48;181,00
559,06;227,00
559,64;226,00
560,21;191,00
560,79;191,00
561,37;259,00
561,95;153,00
562,52;183,00
563,10;233,00
563,68;143,00
564,25;187,00
564,83;220,00
565,41;240,00
565,99;206,00
566,56;204,00
567,14;300,00
567,72;359,00
568,29;354,00
568,87;373,00
569,45;510,00
570,02;427,00
570,60;272,00
571,18;395,00
571,75;289,00
572,33;190,00
572,91;150,00
573,48;200,00
574,06;169,00
574,64;181,00
575,21;280,00
575,79;136,00
576,37;245,00
576,94;175,00
577,52;81,000
578,09;196,00
578,67;163,00
579,25;132,00
579,82;178,00
580,40;230,00
580,97;228,00
581,55;183,00
582,13;170,00
582,70;144,00
583,28;78,000
583,85;264,00
584,43;99,000
585,01;211,00
585,58;95,000
586,16;149,00
586,73;209,00
587,31;102,00
587,88;282,00
588,46;167,00
589,03;175,00
589,61;306,00
590,18;283,00
590,76;193,00
591,34;141,00
591,91;236,00
592,49;253,00
593,06;244,00
593,64;249,00
594,21;267,00
594,79;169,00
595,36;294,00
595,94;158,00
596,51;150,00
597,09;173,00
597,66;246,00
598,24;125,00
598,81;149,00
599,38;219,00
599,96;231,00
600,53;153,00
601,11;153,00
601,68;183,00
602,26;153,00
602,83;114,00
603,41;118,00
603,98;108,00
604,56;-34,000
605,13;118,00
605,70;104,00
606,28;171,00
606,85;195,00
607,43;150,00
608,00;200,00
608,57;123,00
609,15;88,000
609,72;210,00
610,30;213,00
610,87;226,00
611,44;167,00
612,02;191,00
612,59;70,000
613,16;219,00
613,74;114,00
614,31;105,00
614,89;164,00
615,46;191,00
616,03;192,00
616,61;299,00
617,18;155,00
617,75;173,00
618,33;181,00
618,90;230,00
619,47;291,00
620,05;122,00
620,62;277,00
621,19;172,00
621,77;144,00
622,34;204,00
622,91;293,00
623,48;105,00
624,06;193,00
624,63;84,000
625,20;106,00
625,78;130,00
626,35;106,00
626,92;107,00
627,49;162,00
628,07;219,00
628,64;111,00
629,21;92,000
629,78;131,00
630,36;123,00
630,93;234,00
631,50;203,00
632,07;140,00
632,65;177,00
633,22;88,000
633,79;152,00
634,36;87,000
634,93;179,00
635,51;157,00
636,08;159,00
636,65;-31,000
637,22;113,00
637,79;120,00
638,37;176,00
638,94;126,00
639,51;126,00
640,08;151,00
640,65;118,00
641,22;188,00
641,80;219,00
642,37;204,00
642,94;200,00
643,51;147,00
644,08;166,00
644,65;204,00
645,22;146,00
645,80;188,00
646,37;193,00
646,94;222,00
647,51;110,00
648,08;277,00
648,65;174,00
649,22;99,000
649,79;351,00
650,36;288,00
650,93;288,00
651,51;-5,0000
652,08;237,00
652,65;331,00
653,22;254,00
653,79;384,00
654,36;484,00
654,93;370,00
655,50;654,00
656,07;1023,0
656,64;1374,0
657,21;1324,0
657,78;1512,0
658,35;1499,0
658,92;1461,0
659,49;1340,0
660,06;1224,0
660,63;935,00
661,20;855,00
661,77;755,00
662,34;800,00
662,91;683,00
663,48;472,00
664,05;403,00
664,62;415,00
665,19;276,00
665,76;298,00
666,33;331,00
666,90;350,00
667,47;200,00
668,04;179,00
668,61;200,00
669,18;165,00
669,75;181,00
670,32;91,000
670,89;168,00
671,46;228,00
672,03;165,00
672,60;177,00
673,17;132,00
673,74;155,00
674,30;46,000
674,87;249,00
675,44;143,00
676,01;92,000
676,58;130,00
677,15;123,00
677,72;151,00
678,29;142,00
678,86;124,00
679,42;159,00
679,99;140,00
680,56;113,00
681,13;106,00
681,70;235,00
682,27;-44,000
682,84;55,000
683,40;177,00
683,97;162,00
684,54;85,000
685,11;50,000
685,68;117,00
686,25;60,000
686,81;123,00
687,38;73,000
687,95;81,000
688,52;64,000
689,09;11,000
689,65;130,00
690,22;187,00
690,79;89,000
691,36;81,000
691,92;56,000
692,49;91,000
693,06;-8,0000
693,63;133,00
694,20;45,000
694,76;99,000
695,33;175,00
695,90;67,000
696,47;86,000
697,03;92,000
697,60;113,00
698,17;60,000
698,73;40,000
699,30;80,000
699,87;11,000
700,44;179,00
701,00;7,0000
701,57;157,00
702,14;156,00
702,70;124,00
703,27;41,000
703,84;118,00
704,40;142,00
704,97;92,000
705,54;132,00
706,10;96,000
706,67;51,000
707,24;18,000
707,80;38,000
708,37;44,000
708,94;10,0000
709,50;121,00
710,07;75,000
710,64;107,00
711,20;77,000
711,77;161,00
712,33;99,000
712,90;77,000
713,47;109,00
714,03;29,000
714,60;-11,000
715,16;66,000
715,73;26,000
716,30;120,00
716,86;152,00
717,43;197,00
717,99;70,000
718,56;279,00
719,12;110,00
719,69;101,00
720,26;150,00
720,82;119,00
721,39;54,000
721,95;23,000
722,52;141,00
723,08;60,000
723,65;30,000
724,21;59,000
724,78;16,000
725,34;107,00
725,91;82,000
726,47;183,00
727,04;23,000
727,60;66,000
728,17;1,0000
728,73;59,000
729,30;113,00
729,86;92,000
730,43;-4,0000
730,99;118,00
731,56;143,00
732,12;-52,000
732,68;98,000
733,25;17,000
733,81;99,000
734,38;127,00
734,94;176,00
735,51;47,000
736,07;69,000
736,63;128,00
737,20;110,00
737,76;64,000
738,33;73,000
738,89;84,000
739,46;87,000
740,02;84,000
740,58;60,000
741,15;8,0000
741,71;10,0000
742,27;39,000
742,84;144,00
743,40;104,00
743,97;207,00
744,53;232,00
745,09;309,00
745,66;245,00
746,22;325,00
746,78;256,00
747,35;344,00
747,91;192,00
748,47;303,00
749,04;226,00
749,60;301,00
750,16;1,0000
750,72;156,00
751,29;8,0000
751,85;29,000
752,41;137,00
752,98;56,000
753,54;208,00
754,10;124,00
754,66;119,00
755,23;-13,000
755,79;101,00
756,35;128,00
756,91;28,000
757,48;75,000
758,04;-7,0000
758,60;110,00
759,16;134,00
759,73;120,00
760,29;-2,0000
760,85;42,000
761,41;34,000
761,98;-13,000
762,54;84,000
763,10;65,000
763,66;21,000
764,22;84,000
764,79;25,000
765,35;-35,000
765,91;81,000
766,47;72,000
767,03;52,000
767,59;6,0000
768,16;11,000
768,72;51,000
769,28;-35,000
769,84;77,000
770,40;-48,000
770,96;111,00
771,52;139,00
772,09;108,00
772,65;6,0000
773,21;125,00
773,77;7,0000
774,33;35,000
774,89;-47,000
775,45;-20,000
776,01;104,00
776,57;162,00
777,13;327,00
777,70;267,00
778,26;319,00
778,82;308,00
779,38;267,00
779,94;312,00
780,50;422,00
781,06;272,00
781,62;163,00
782,18;-62,000
782,74;172,00
783,30;53,000
783,86;64,000
784,42;57,000
784,98;31,000
785,54;128,00
786,10;-57,000
786,66;-12,000
787,22;-26,000
787,78;80,000
788,34;53,000
788,90;115,00
789,46;92,000
790,02;-30,000
790,58;69,000
791,14;18,000
791,70;93,000
792,26;51,000
792,82;36,000
793,38;80,000
793,94;47,000
794,50;187,00
795,06;153,00
795,62;40,000
796,17;2,0000
796,73;-2,0000
797,29;61,000
797,85;129,00
798,41;13,000
798,97;25,000
799,53;17,000
800,09;18,000
800,65;115,00
801,21;164,00
801,76;-26,000
802,32;36,000
802,88;74,000
803,44;1,0000
804,00;-12,000
804,56;-130,00
805,12;53,000
805,67;51,000
806,23;114,00
806,79;73,000
807,35;115,00
807,91;44,000
808,46;-61,000
809,02;6,0000
809,58;-116,00
810,14;-28,000
810,70;52,000
811,26;28,000
811,81;46,000
812,37;105,00
812,93;123,00
813,49;-72,000
814,04;-13,000
814,60;56,000
815,16;120,00
815,72;136,00
816,27;196,00
816,83;-52,000
817,39;124,00
817,95;-48,000
818,50;96,000
819,06;145,00
819,62;60,000
820,18;121,00
820,73;17,000
821,29;198,00
821,85;165,00
822,40;157,00
822,96;138,00
823,52;202,00
824,07;88,000
824,63;104,00
825,19;184,00
825,74;108,00
826,30;67,000
826,86;122,00
827,41;46,000
827,97;124,00
828,53;38,000
829,08;-30,000
829,64;-35,000
830,20;124,00
830,75;26,000
831,31;18,000
831,86;-42,000
832,42;24,000
832,98;55,000
833,53;7,0000
834,09;108,00
834,64;130,00
835,20;-40,000
835,76;10,0000
836,31;-40,000
836,87;89,000
837,42;48,000
837,98;42,000
838,53;21,000
839,09;140,00
839,64;73,000
840,20;72,000
840,75;-12,000
841,31;-2,0000
841,87;-149,00
842,42;-119,00
842,98;83,000
843,53;5,0000
844,09;53,000
844,64;38,000
845,20;58,000
845,75;213,00
846,31;68,000
846,86;100,000
847,41;135,00
847,97;-11,000
848,52;50,000
849,08;30,000
849,63;104,00
850,19;107,00
850,74;49,000
851,30;-9,0000
851,85;-3,0000
852,41;53,000
852,96;33,000
853,51;20,000
854,07;16,000
854,62;56,000
855,18;-28,000
855,73;14,000
856,28;61,000
856,84;58,000
857,39;58,000
857,95;11,000
858,50;25,000
859,05;65,000
859,61;87,000
860,16;-58,000
860,71;-47,000
861,27;-61,000
861,82;75,000
862,37;106,00
862,93;-17,000
863,48;134,00
864,03;117,00
864,59;148,00
865,14;63,000
865,69;176,00
866,25;71,000
866,80;728,00
867,35;102,00
867,90;110,00
868,46;31,000
869,01;45,000
869,56;278,00
870,12;79,000
870,67;161,00
871,22;66,000
871,77;121,00
872,33;73,000
872,88;-8,0000
873,43;80,000
873,98;79,000
874,54;89,000
875,09;47,000
875,64;58,000
876,19;2,0000
876,74;9,0000
877,30;48,000
877,85;47,000
878,40;1,0000
878,95;-4,0000
879,50;85,000
880,06;-6,0000
880,61;28,000
881,16;-57,000
881,71;-50,000
882,26;40,000
882,81;-66,000
883,37;52,000
883,92;51,000
884,47;70,000
885,02;1,0000
885,57;42,000
886,12;-47,000
886,67;-4,0000
887,22;11,000
887,78;66,000
888,33;18,000
888,88;54,000
889,43;-72,000
889,98;55,000
890,53;-44,000
891,08;-92,000
891,63;67,000
892,18;102,00
892,73;59,000
893,28;-18,000
893,83;-3,0000
894,38;65,000
894,93;-25,000
895,48;38,000
896,03;3,0000
896,59;-73,000
897,14;162,00
897,69;-26,000
898,24;-7,0000
898,79;18,000
899,34;9,0000
899,89;63,000
900,44;81,000
900,99;85,000
901,53;42,000
902,08;-109,00
902,63;90,000
903,18;62,000
903,73;-49,000
904,28;-60,000
904,83;-8,0000
905,38;91,000
905,93;32,000
906,48;109,00
907,03;30,000
907,58;37,000
908,13;1,0000
908,68;68,000
909,23;61,000
909,78;-13,000
910,32;18,000
910,87;3,0000
911,42;-15,000
911,97;57,000
912,52;68,000
913,07;40,000
913,62;-19,000
914,17;-19,000
914,71;212,00
915,26;161,00
915,81;-26,000
916,36;-18,000
916,91;70,000
917,46;102,00
918,00;-8,0000
918,55;59,000
919,10;133,00
919,65;34,000
920,20;-6,0000
920,74;58,000
921,29;30,000
921,84;54,000
922,39;134,00
922,94;-53,000
923,48;48,000
924,03;26,000
924,58;-4,0000
925,13;16,000
925,67;104,00
926,22;104,00
926,77;94,000
927,32;25,000
927,86;173,00
928,41;91,000
928,96;78,000
929,50;39,000
930,05;33,000
930,60;96,000
931,15;9,0000
931,69;62,000
932,24;85,000
932,79;0
933,33;-75,000
933,88;48,000
934,43;-28,000
934,97;9,0000
935,52;77,000
936,07;-65,000
936,61;26,000
937,16;62,000
937,71;20,000
938,25;0
938,80;70,000
939,34;104,00
939,89;53,000
940,44;10,0000
940,98;-9,0000
941,53;83,000
942,07;77,000
942,62;49,000
943,17;60,000
943,71;-7,0000
944,26;-82,000
944,80;80,000
945,35;-60,000
945,89;-87,000
946,44;-45,000
946,99;71,000
947,53;73,000
948,08;-50,000
948,62;69,000
949,17;45,000
949,71;-3,0000
950,26;-39,000
950,80;94,000
951,35;-19,000
951,89;-48,000
952,44;-106,00
952,98;32,000
953,53;64,000
954,07;42,000
954,62;50,000
955,16;-24,000
955,71;31,000
956,25;57,000
956,79;-45,000
957,34;56,000
957,88;136,00
958,43;14,000
958,97;10,0000
959,52;41,000
960,06;91,000
960,60;-6,0000
961,15;-56,000
961,69;-19,000
962,24;101,00
962,78;-78,000
963,32;12,000
963,87;-100,000
964,41;144,00
964,96;31,000
965,50;31,000
966,04;42,000
966,59;-52,000
967,13;5,0000
967,67;-46,000
968,22;-81,000
968,76;-24,000
969,30;110,00
969,85;19,000
970,39;15,000
970,93;20,000
971,47;55,000
972,02;47,000
972,56;-79,000
973,10;-31,000
973,65;-37,000
974,19;18,000
974,73;102,00
975,27;11,000
975,82;-49,000
976,36;59,000
976,90;17,000
977,44;-146,00
977,99;-63,000
978,53;-28,000
979,07;39,000
979,61;59,000
980,16;-78,000
980,70;-7,0000
981,24;-85,000
981,78;-83,000
982,32;-85,000
982,87;82,000
983,41;2,0000
983,95;29,000
984,49;-30,000
985,03;-97,000
985,57;-4,0000
986,12;-6,0000
986,66;-10,0000
987,20;-86,000
987,74;33,000
988,28;55,000
988,82;48,000
989,36;87,000
989,91;-104,00
990,45;29,000
990,99;-112,00
991,53;-38,000
992,07;14,000
992,61;10,0000
993,15;-15,000
993,69;42,000
994,23;-60,000
994,77;10,0000
995,31;-2,0000
995,86;-51,000
996,40;-16,000
996,94;8,0000
997,48;-90,000
998,02;36,000
998,56;24,000
999,10;46,000
999,64;57,000
1000,18;18,000
1000,72;-19,000
1001,26;-31,000
1001,80;-9,0000
1002,34;-98,000
1002,88;-38,000
1003,42;-69,000
1003,96;42,000
1004,50;-17,000
1005,04;-91,000
1005,58;19,000
1006,12;-69,000
1006,66;133,00
1007,20;41,000
1007,73;-25,000
1008,27;17,000
1008,81;-88,000
1009,35;96,000
1009,89;26,000
1010,43;-9,0000
1010,97;44,000
1011,51;8,0000
1012,05;-39,000
1012,59;64,000
1013,13;34,000
1013,66;-15,000
1014,20;29,000
1014,74;78,000
1015,28;-55,000
1015,82;-27,000
1016,36;71,000
1016,90;17,000
1017,43;-37,000
1017,97;231,00
1018,51;53,000
1019,05;37,000
1019,59;-7,0000
1020,13;-3,0000
1020,66;2,0000
1021,20;2,0000
1021,74;102,00
1022,28;-11,000
1022,81;79,000
1023,35;-41,000
1023,89;67,000
1024,43;31,000
1024,97;-103,00
1025,50;123,00
1026,04;-45,000
1026,58;44,000
1027,12;109,00
1027,65;15,000
1028,19;26,000
1028,73;41,000
1029,26;6,0000
1029,80;-47,000
1030,34;19,000
1030,88;64,000
1031,41;93,000
1031,95;17,000
1032,49;27,000
1033,02;56,000
1033,56;84,000
1034,10;41,000
1034,63;-51,000
1035,17;5,0000
1035,71;-41,000
1036,24;-10,0000
1036,78;-55,000
1037,32;-33,000
1037,85;132,00
1038,39;6,0000
1038,92;52,000
1039,46;-6,0000
1040,00;-33,000
1040,53;50,000
1041,07;143,00
1041,60;57,000
1042,14;106,00
1042,68;18,000
1043,21;-72,000
1043,75;94,000
1044,28;55,000
1044,82;-19,000
1045,35;33,000
1045,89;-12,000
1046,42;75,000
1046,96;20,000
1047,49;16,000
1048,03;-45,000
1048,57;-56,000
1049,10;117,00
1049,64;40,000
1050,17;85,000
1050,70;78,000
1051,24;82,000
1051,77;42,000
1052,31;27,000
1052,84;-42,000
1053,38;-16,000
1053,91;58,000
1054,45;72,000
1054,98;104,00
1055,52;30,000
1056,05;27,000
1056,59;44,000
1057,12;-91,000
1057,65;-13,000
1058,19;-7,0000
1058,72;14,000
1059,26;-34,000
1059,79;-34,000
1060,32;19,000
1060,86;72,000
1061,39;41,000
1061,93;2,0000
1062,46;80,000
1062,99;1,0000
1063,53;-14,000
1064,06;67,000
1064,59;-10,0000
1065,13;-63,000
1065,66;-12,000
1066,19;33,000
1066,73;24,000
1067,26;58,000
1067,79;26,000
1068,33;-21,000
1068,86;63,000
1069,39;-31,000
1069,92;4,0000
1070,46;57,000
1070,99;-10,0000
1071,52;-102,00
1072,05;-121,00
1072,59;-64,000
1073,12;29,000
1073,65;-34,000
1074,18;-38,000
1074,72;-93,000
1075,25;2,0000
1075,78;5,0000
1076,31;-5,0000
1076,85;3,0000
1077,38;-91,000
1077,91;72,000
1078,44;-149,00
1078,97;-61,000
1079,51;-95,000
1080,04;0
1080,57;-82,000
1081,10;78,000
1081,63;-51,000
1082,16;-73,000
1082,70;-31,000
1083,23;21,000
1083,76;14,000
1084,29;0
1084,82;-21,000
1085,35;-2,0000
1085,88;-14,000
1086,41;14,000
1086,94;-47,000
1087,48;45,000
1088,01;-22,000
1088,54;0
1089,07;-31,000
1089,60;-9,0000
1090,13;-22,000
1090,66;35,000
1091,19;66,000
1091,72;-60,000
1092,25;35,000
1092,78;-23,000
1093,31;13,000
1093,84;50,000
1094,37;-25,000
1094,90;49,000
1095,43;0
1095,96;-28,000
1096,49;-63,000
1097,02;-7,0000
1097,55;32,000
1098,08;34,000
1098,61;20,000
1099,14;-65,000
1099,67;49,000
1100,20;38,000
