M- del 28, 3
Integration time: 5000 ms
Average: 1 scans
Nr of pixels used for smoothing: 0
Data measured with spectrometer serial number: 0604021S1
Wave   ;Sample
[nm]   ;[counts]
173,70;23,000
174,30;100,000
174,90;12,000
175,50;-27,000
176,10;-74,000
176,70;129,00
177,30;-30,000
177,90;20,000
178,50;-84,000
179,10;78,000
179,70;-18,000
180,30;44,000
180,89;7,0000
181,49;-66,000
182,09;26,000
182,69;-47,000
183,29;112,00
183,89;38,000
184,49;59,000
185,09;72,000
185,69;16,000
186,29;23,000
186,89;22,000
187,48;55,000
188,08;-85,000
188,68;82,000
189,28;-27,000
189,88;58,000
190,48;30,000
191,08;27,000
191,68;17,000
192,28;47,000
192,87;-23,000
193,47;36,000
194,07;58,000
194,67;61,000
195,27;76,000
195,87;-48,000
196,47;-34,000
197,06;-17,000
197,66;16,000
198,26;43,000
198,86;-12,000
199,46;-4,0000
200,06;110,00
200,66;-88,000
201,25;122,00
201,85;55,000
202,45;-99,000
203,05;30,000
203,65;126,00
204,24;42,000
204,84;35,000
205,44;-101,00
206,04;36,000
206,64;18,000
207,24;66,000
207,83;-87,000
208,43;-16,000
209,03;10,0000
209,63;116,00
210,22;4,0000
210,82;39,000
211,42;7,0000
212,02;-13,000
212,62;-6,0000
213,21;91,000
213,81;8,0000
214,41;-13,000
215,01;-26,000
215,60;-51,000
216,20;-104,00
216,80;-57,000
217,40;-4,0000
218,00;98,000
218,59;61,000
219,19;144,00
219,79;-38,000
220,38;-105,00
220,98;52,000
221,58;-1,0000
222,18;-34,000
222,77;-10,0000
223,37;19,000
223,97;-72,000
224,57;-17,000
225,16;-16,000
225,76;-22,000
226,36;-55,000
226,95;21,000
227,55;10,0000
228,15;111,00
228,75;8,0000
229,34;108,00
229,94;-9,0000
230,54;-57,000
231,13;28,000
231,73;-30,000
232,33;6,0000
232,92;78,000
233,52;1,0000
234,12;-14,000
234,71;-19,000
235,31;-59,000
235,91;-73,000
236,50;24,000
237,10;-18,000
237,70;-33,000
238,29;62,000
238,89;76,000
239,49;-6,0000
240,08;-16,000
240,68;-20,000
241,28;86,000
241,87;80,000
242,47;-13,000
243,06;-54,000
243,66;49,000
244,26;64,000
244,85;0
245,45;-25,000
246,05;-48,000
246,64;13,000
247,24;-18,000
247,83;91,000
248,43;-1,0000
249,03;45,000
249,62;8,0000
250,22;-7,0000
250,81;-4,0000
251,41;-37,000
252,01;29,000
252,60;62,000
253,20;90,000
253,79;-67,000
254,39;-32,000
254,98;-39,000
255,58;55,000
256,18;40,000
256,77;124,00
257,37;-6,0000
257,96;-17,000
258,56;-51,000
259,15;41,000
259,75;53,000
260,34;6,0000
260,94;32,000
261,53;-37,000
262,13;66,000
262,73;-63,000
263,32;-1,0000
263,92;53,000
264,51;99,000
265,11;-17,000
265,70;-18,000
266,30;-11,000
266,89;67,000
267,49;-66,000
268,08;-70,000
268,68;-95,000
269,27;-11,000
269,87;75,000
270,46;-25,000
271,06;17,000
271,65;-42,000
272,25;-33,000
272,84;-44,000
273,44;-2,0000
274,03;36,000
274,62;-18,000
275,22;-23,000
275,81;41,000
276,41;87,000
277,00;-42,000
277,60;53,000
278,19;-32,000
278,79;-21,000
279,38;-23,000
279,98;8,0000
280,57;128,00
281,16;34,000
281,76;-62,000
282,35;7,0000
282,95;62,000
283,54;-29,000
284,14;26,000
284,73;-22,000
285,32;-52,000
285,92;22,000
286,51;60,000
287,11;23,000
287,70;40,000
288,29;141,00
288,89;23,000
289,48;-7,0000
290,08;-3,0000
290,67;11,000
291,26;13,000
291,86;6,0000
292,45;45,000
293,04;66,000
293,64;-78,000
294,23;-88,000
294,83;-1,0000
295,42;131,00
296,01;67,000
296,61;89,000
297,20;4,0000
297,79;54,000
298,39;12,000
298,98;71,000
299,57;-3,0000
300,17;24,000
300,76;30,000
301,35;17,000
301,95;7,0000
302,54;7,0000
303,13;-76,000
303,73;44,000
304,32;1,0000
304,91;29,000
305,51;3,0000
306,10;32,000
306,69;121,00
307,28;-118,00
307,88;-65,000
308,47;-49,000
309,06;29,000
309,66;-47,000
310,25;-84,000
310,84;76,000
311,43;18,000
312,03;-19,000
312,62;32,000
313,21;94,000
313,81;176,00
314,40;269,00
314,99;457,00
315,58;692,00
316,18;709,00
316,77;677,00
317,36;608,00
317,95;588,00
318,54;565,00
319,14;340,00
319,73;185,00
320,32;54,000
320,91;41,000
321,51;43,000
322,10;100,000
322,69;97,000
323,28;-18,000
323,87;23,000
324,47;32,000
325,06;-57,000
325,65;87,000
326,24;51,000
326,83;65,000
327,43;31,000
328,02;72,000
328,61;44,000
329,20;191,00
329,79;26,000
330,39;17,000
330,98;158,00
331,57;127,00
332,16;4,0000
332,75;150,00
333,34;295,00
333,93;136,00
334,53;133,00
335,12;530,00
335,71;1587,0
336,30;3402,0
336,89;5047,0
337,48;5227,0
338,07;5127,0
338,67;4885,0
339,26;4834,0
339,85;3864,0
340,44;2474,0
341,03;470,00
341,62;57,000
342,21;169,00
342,80;67,000
343,39;107,00
343,99;133,00
344,58;-29,000
345,17;17,000
345,76;52,000
346,35;-27,000
346,94;-26,000
347,53;48,000
348,12;44,000
348,71;148,00
349,30;294,00
349,89;257,00
350,48;280,00
351,07;147,00
351,66;376,00
352,26;949,00
352,85;1391,0
353,44;1736,0
354,03;1857,0
354,62;1977,0
355,21;2145,0
355,80;2641,0
356,39;3945,0
356,98;6424,0
357,57;6962,0
358,16;7203,0
358,75;6883,0
359,34;6682,0
359,93;6023,0
360,52;4803,0
361,11;2537,0
361,70;392,00
362,29;247,00
362,88;148,00
363,47;143,00
364,06;125,00
364,65;96,000
365,24;48,000
365,83;59,000
366,42;123,00
367,01;138,00
367,60;225,00
368,19;161,00
368,78;100,000
369,37;337,00
369,95;350,00
370,54;689,00
371,13;733,00
371,72;727,00
372,31;755,00
372,90;713,00
373,49;857,00
374,08;1329,0
374,67;1860,0
375,26;2544,0
375,85;2534,0
376,44;2515,0
377,03;2397,0
377,61;2328,0
378,20;2033,0
378,79;2022,0
379,38;2186,0
379,97;3563,0
380,56;3804,0
381,15;3991,0
381,74;3673,0
382,33;3500,0
382,91;3112,0
383,50;2162,0
384,09;748,00
384,68;180,00
385,27;152,00
385,86;221,00
386,45;121,00
387,03;102,00
387,62;220,00
388,21;122,00
388,80;108,00
389,39;251,00
389,98;249,00
390,57;161,00
391,15;281,00
391,74;268,00
392,33;290,00
392,92;290,00
393,51;505,00
394,09;545,00
394,68;537,00
395,27;472,00
395,86;537,00
396,45;459,00
397,03;612,00
397,62;449,00
398,21;552,00
398,80;962,00
399,39;1414,0
399,97;1427,0
400,56;1504,0
401,15;1460,0
401,74;1368,0
402,32;1215,0
402,91;750,00
403,50;565,00
404,09;554,00
404,67;882,00
405,26;1591,0
405,85;1674,0
406,44;1839,0
407,02;1811,0
407,61;1715,0
408,20;1616,0
408,78;1424,0
409,37;593,00
409,96;288,00
410,55;220,00
411,13;286,00
411,72;157,00
412,31;156,00
412,89;72,000
413,48;224,00
414,07;255,00
414,65;168,00
415,24;233,00
415,83;142,00
416,42;106,00
417,00;106,00
417,59;169,00
418,18;230,00
418,76;267,00
419,35;361,00
419,94;571,00
420,52;567,00
421,11;506,00
421,69;456,00
422,28;440,00
422,87;326,00
423,45;264,00
424,04;196,00
424,63;279,00
425,21;299,00
425,80;447,00
426,38;798,00
426,97;899,00
427,56;833,00
428,14;787,00
428,73;828,00
429,31;760,00
429,90;612,00
430,49;455,00
431,07;139,00
431,66;180,00
432,24;266,00
432,83;262,00
433,42;358,00
434,00;635,00
434,59;619,00
435,17;662,00
435,76;641,00
436,34;600,00
436,93;531,00
437,51;410,00
438,10;216,00
438,69;62,000
439,27;40,000
439,86;43,000
440,44;77,000
441,03;64,000
441,61;122,00
442,20;91,000
442,78;48,000
443,37;41,000
443,95;133,00
444,54;170,00
445,12;95,000
445,71;213,00
446,29;104,00
446,88;3,0000
447,46;123,00
448,05;151,00
448,63;213,00
449,22;223,00
449,80;122,00
450,39;189,00
450,97;131,00
451,56;109,00
452,14;245,00
452,72;43,000
453,31;-12,000
453,89;106,00
454,48;60,000
455,06;26,000
455,65;78,000
456,23;79,000
456,81;202,00
457,40;301,00
457,98;255,00
458,57;312,00
459,15;149,00
459,74;225,00
460,32;231,00
460,90;200,00
461,49;98,000
462,07;41,000
462,66;29,000
463,24;15,000
463,82;78,000
464,41;118,00
464,99;72,000
465,57;40,000
466,16;166,00
466,74;112,00
467,33;229,00
467,91;151,00
468,49;102,00
469,08;25,000
469,66;44,000
470,24;-16,000
470,83;107,00
471,41;83,000
471,99;22,000
472,58;92,000
473,16;133,00
473,74;70,000
474,33;60,000
474,91;37,000
475,49;28,000
476,08;83,000
476,66;-1,0000
477,24;37,000
477,82;-45,000
478,41;31,000
478,99;58,000
479,57;72,000
480,16;71,000
480,74;182,00
481,32;78,000
481,90;73,000
482,49;132,00
483,07;154,00
483,65;-61,000
484,23;69,000
484,82;4,0000
485,40;87,000
485,98;90,000
486,56;85,000
487,15;39,000
487,73;90,000
488,31;64,000
488,89;-1,0000
489,47;99,000
490,06;125,00
490,64;35,000
491,22;135,00
491,80;110,00
492,39;74,000
492,97;40,000
493,55;68,000
494,13;109,00
494,71;72,000
495,29;5,0000
495,88;-52,000
496,46;-37,000
497,04;39,000
497,62;97,000
498,20;-97,000
498,78;134,00
499,37;30,000
499,95;-33,000
500,53;26,000
501,11;-3,0000
501,69;122,00
502,27;89,000
502,85;61,000
503,44;65,000
504,02;178,00
504,60;-5,0000
505,18;72,000
505,76;-92,000
506,34;50,000
506,92;-9,0000
507,50;-21,000
508,08;-21,000
508,67;49,000
509,25;14,000
509,83;59,000
510,41;23,000
510,99;75,000
511,57;-94,000
512,15;0
512,73;82,000
513,31;112,00
513,89;38,000
514,47;111,00
515,05;-16,000
515,63;-40,000
516,21;-8,0000
516,79;7,0000
517,38;26,000
517,96;-6,0000
518,54;7,0000
519,12;98,000
519,70;80,000
520,28;-73,000
520,86;62,000
521,44;1,0000
522,02;19,000
522,60;-81,000
523,18;-21,000
523,76;31,000
524,34;-43,000
524,92;-79,000
525,50;-17,000
526,08;-87,000
526,66;19,000
527,24;-82,000
527,82;-9,0000
528,39;37,000
528,97;74,000
529,55;48,000
530,13;23,000
530,71;148,00
531,29;86,000
531,87;50,000
532,45;5,0000
533,03;-98,000
533,61;-32,000
534,19;-77,000
534,77;-46,000
535,35;-30,000
535,93;44,000
536,51;4,0000
537,08;322,00
537,66;-19,000
538,24;11,000
538,82;66,000
539,40;30,000
539,98;-14,000
540,56;17,000
541,14;17,000
541,72;30,000
542,29;50,000
542,87;-41,000
543,45;22,000
544,03;-102,00
544,61;-154,00
545,19;122,00
545,77;-14,000
546,34;37,000
546,92;21,000
547,50;6,0000
548,08;-43,000
548,66;49,000
549,23;53,000
549,81;53,000
550,39;0
550,97;63,000
551,55;18,000
552,13;62,000
552,70;11,000
553,28;94,000
553,86;51,000
554,44;-39,000
555,01;48,000
555,59;20,000
556,17;7,0000
556,75;-10,0000
557,33;-36,000
557,90;79,000
558,48;102,00
559,06;-70,000
559,64;-4,0000
560,21;87,000
560,79;-23,000
561,37;64,000
561,95;130,00
562,52;61,000
563,10;-7,0000
563,68;39,000
564,25;16,000
564,83;-3,0000
565,41;-18,000
565,99;33,000
566,56;-58,000
567,14;35,000
567,72;91,000
568,29;-53,000
568,87;30,000
569,45;62,000
570,02;27,000
570,60;115,00
571,18;48,000
571,75;122,00
572,33;6,0000
572,91;-48,000
573,48;2,0000
574,06;66,000
574,64;22,000
575,21;103,00
575,79;-10,0000
576,37;71,000
576,94;48,000
577,52;38,000
578,09;107,00
578,67;100,000
579,25;22,000
579,82;38,000
580,40;35,000
580,97;169,00
581,55;135,00
582,13;85,000
582,70;-84,000
583,28;57,000
583,85;59,000
584,43;104,00
585,01;-28,000
585,58;91,000
586,16;35,000
586,73;-86,000
587,31;104,00
587,88;40,000
588,46;37,000
589,03;40,000
589,61;145,00
590,18;50,000
590,76;3,0000
591,34;107,00
591,91;3,0000
592,49;7,0000
593,06;123,00
593,64;144,00
594,21;-53,000
594,79;21,000
595,36;25,000
595,94;-30,000
596,51;45,000
597,09;-21,000
597,66;108,00
598,24;-17,000
598,81;-17,000
599,38;39,000
599,96;96,000
600,53;98,000
601,11;136,00
601,68;-8,0000
602,26;-17,000
602,83;96,000
603,41;-83,000
603,98;56,000
604,56;8,0000
605,13;2,0000
605,70;109,00
606,28;64,000
606,85;110,00
607,43;36,000
608,00;103,00
608,57;110,00
609,15;-6,0000
609,72;66,000
610,30;23,000
610,87;61,000
611,44;12,000
612,02;90,000
612,59;-27,000
613,16;86,000
613,74;-70,000
614,31;42,000
614,89;178,00
615,46;31,000
616,03;83,000
616,61;80,000
617,18;62,000
617,75;92,000
618,33;59,000
618,90;28,000
619,47;5,0000
620,05;59,000
620,62;71,000
621,19;6,0000
621,77;-1,0000
622,34;40,000
622,91;20,000
623,48;-58,000
624,06;1,0000
624,63;-31,000
625,20;20,000
625,78;79,000
626,35;56,000
626,92;104,00
627,49;12,000
628,07;33,000
628,64;43,000
629,21;22,000
629,78;68,000
630,36;99,000
630,93;48,000
631,50;38,000
632,07;31,000
632,65;-12,000
633,22;35,000
633,79;-28,000
634,36;-15,000
634,93;7,0000
635,51;22,000
636,08;71,000
636,65;164,00
637,22;25,000
637,79;11,000
638,37;-7,0000
638,94;109,00
639,51;4,0000
640,08;95,000
640,65;81,000
641,22;6,0000
641,80;-11,000
642,37;-33,000
642,94;81,000
643,51;53,000
644,08;-30,000
644,65;49,000
645,22;20,000
645,80;95,000
646,37;91,000
646,94;-8,0000
647,51;27,000
648,08;71,000
648,65;62,000
649,22;-7,0000
649,79;23,000
650,36;120,00
650,93;61,000
651,51;42,000
652,08;8,0000
652,65;36,000
653,22;77,000
653,79;9,0000
654,36;90,000
654,93;149,00
655,50;-1,0000
656,07;71,000
656,64;-44,000
657,21;-10,0000
657,78;73,000
658,35;8,0000
658,92;36,000
659,49;27,000
660,06;12,000
660,63;96,000
661,20;106,00
661,77;131,00
662,34;122,00
662,91;41,000
663,48;54,000
664,05;146,00
664,62;142,00
665,19;158,00
665,76;50,000
666,33;58,000
666,90;25,000
667,47;158,00
668,04;67,000
668,61;103,00
669,18;34,000
669,75;137,00
670,32;187,00
670,89;148,00
671,46;115,00
672,03;45,000
672,60;3,0000
673,17;85,000
673,74;40,000
674,30;-1,0000
674,87;14,000
675,44;53,000
676,01;92,000
676,58;55,000
677,15;62,000
677,72;-10,0000
678,29;34,000
678,86;109,00
679,42;89,000
679,99;46,000
680,56;138,00
681,13;-88,000
681,70;149,00
682,27;-9,0000
682,84;31,000
683,40;74,000
683,97;-10,0000
684,54;21,000
685,11;95,000
685,68;39,000
686,25;17,000
686,81;83,000
687,38;32,000
687,95;89,000
688,52;20,000
689,09;2,0000
689,65;-47,000
690,22;27,000
690,79;-52,000
691,36;144,00
691,92;66,000
692,49;32,000
693,06;37,000
693,63;59,000
694,20;91,000
694,76;-91,000
695,33;-23,000
695,90;8,0000
696,47;-72,000
697,03;103,00
697,60;-28,000
698,17;46,000
698,73;-45,000
699,30;-8,0000
699,87;-50,000
700,44;-27,000
701,00;32,000
701,57;146,00
702,14;-60,000
702,70;-16,000
703,27;65,000
703,84;52,000
704,40;56,000
704,97;38,000
705,54;-144,00
706,10;-6,0000
706,67;3,0000
707,24;-54,000
707,80;21,000
708,37;-7,0000
708,94;72,000
709,50;4,0000
710,07;-9,0000
710,64;-4,0000
711,20;-59,000
711,77;136,00
712,33;9,0000
712,90;7,0000
713,47;70,000
714,03;62,000
714,60;27,000
715,16;-19,000
715,73;42,000
716,30;-3,0000
716,86;33,000
717,43;149,00
717,99;-82,000
718,56;214,00
719,12;41,000
719,69;-21,000
720,26;6,0000
720,82;74,000
721,39;-74,000
721,95;14,000
722,52;131,00
723,08;17,000
723,65;30,000
724,21;0
724,78;75,000
725,34;74,000
725,91;52,000
726,47;45,000
727,04;71,000
727,60;-30,000
728,17;22,000
728,73;23,000
729,30;87,000
729,86;27,000
730,43;73,000
730,99;70,000
731,56;41,000
732,12;-36,000
732,68;-118,00
733,25;-120,00
733,81;9,0000
734,38;21,000
734,94;28,000
735,51;-54,000
736,07;-27,000
736,63;87,000
737,20;102,00
737,76;-27,000
738,33;83,000
738,89;-82,000
739,46;45,000
740,02;-14,000
740,58;53,000
741,15;196,00
741,71;92,000
742,27;58,000
742,84;83,000
743,40;54,000
743,97;-16,000
744,53;10,0000
745,09;34,000
745,66;5,0000
746,22;13,000
746,78;115,00
747,35;-16,000
747,91;-9,0000
748,47;114,00
749,04;14,000
749,60;28,000
750,16;136,00
750,72;62,000
751,29;121,00
751,85;25,000
752,41;108,00
752,98;97,000
753,54;-26,000
754,10;32,000
754,66;-6,0000
755,23;140,00
755,79;5,0000
756,35;-36,000
756,91;33,000
757,48;41,000
758,04;29,000
758,60;150,00
759,16;90,000
759,73;35,000
760,29;96,000
760,85;21,000
761,41;167,00
761,98;57,000
762,54;65,000
763,10;146,00
763,66;70,000
764,22;-13,000
764,79;115,00
765,35;42,000
765,91;166,00
766,47;-3,0000
767,03;36,000
767,59;-13,000
768,16;40,000
768,72;4,0000
769,28;77,000
769,84;49,000
770,40;29,000
770,96;74,000
771,52;88,000
772,09;90,000
772,65;-41,000
773,21;49,000
773,77;64,000
774,33;111,00
774,89;114,00
775,45;-6,0000
776,01;76,000
776,57;130,00
777,13;52,000
777,70;-19,000
778,26;13,000
778,82;-73,000
779,38;83,000
779,94;-61,000
780,50;19,000
781,06;32,000
781,62;-19,000
782,18;-51,000
782,74;-46,000
783,30;-54,000
783,86;55,000
784,42;-60,000
784,98;-18,000
785,54;-62,000
786,10;48,000
786,66;38,000
787,22;-50,000
787,78;-28,000
788,34;56,000
788,90;27,000
789,46;-49,000
790,02;-108,00
790,58;-12,000
791,14;2,0000
791,70;47,000
792,26;19,000
792,82;-33,000
793,38;410,00
793,94;20,000
794,50;47,000
795,06;25,000
795,62;-55,000
796,17;34,000
796,73;26,000
797,29;96,000
797,85;-10,0000
798,41;6,0000
798,97;-41,000
799,53;-5,0000
800,09;13,000
800,65;-23,000
801,21;-87,000
801,76;37,000
802,32;-87,000
802,88;24,000
803,44;77,000
804,00;61,000
804,56;-61,000
805,12;11,000
805,67;45,000
806,23;92,000
806,79;71,000
807,35;-23,000
807,91;-84,000
808,46;-63,000
809,02;-16,000
809,58;-43,000
810,14;33,000
810,70;65,000
811,26;38,000
811,81;9,0000
812,37;-36,000
812,93;56,000
813,49;-61,000
814,04;56,000
814,60;-1,0000
815,16;44,000
815,72;29,000
816,27;-48,000
816,83;-104,00
817,39;0
817,95;-24,000
818,50;-4,0000
819,06;-57,000
819,62;-8,0000
820,18;4,0000
820,73;16,000
821,29;20,000
821,85;-31,000
822,40;41,000
822,96;-45,000
823,52;19,000
824,07;-27,000
824,63;47,000
825,19;30,000
825,74;32,000
826,30;1,0000
826,86;-93,000
827,41;-49,000
827,97;17,000
828,53;-44,000
829,08;65,000
829,64;6,0000
830,20;59,000
830,75;-90,000
831,31;-19,000
831,86;11,000
832,42;75,000
832,98;71,000
833,53;19,000
834,09;60,000
834,64;-51,000
835,20;-44,000
835,76;59,000
836,31;12,000
836,87;-61,000
837,42;3,0000
837,98;84,000
838,53;-7,0000
839,09;-82,000
839,64;43,000
840,20;-90,000
840,75;-22,000
841,31;1,0000
841,87;-20,000
842,42;226,00
842,98;79,000
843,53;95,000
844,09;9,0000
844,64;15,000
845,20;40,000
845,75;-13,000
846,31;65,000
846,86;2,0000
847,41;69,000
847,97;32,000
848,52;10,0000
849,08;33,000
849,63;-42,000
850,19;-45,000
850,74;82,000
851,30;4,0000
851,85;34,000
852,41;-21,000
852,96;142,00
853,51;-33,000
854,07;9,0000
854,62;23,000
855,18;22,000
855,73;2,0000
856,28;39,000
856,84;-4,0000
857,39;-62,000
857,95;41,000
858,50;-66,000
859,05;-68,000
859,61;93,000
860,16;16,000
860,71;98,000
861,27;2,0000
861,82;-13,000
862,37;-119,00
862,93;-26,000
863,48;-2,0000
864,03;14,000
864,59;-36,000
865,14;39,000
865,69;18,000
866,25;111,00
866,80;21,000
867,35;54,000
867,90;38,000
868,46;142,00
869,01;107,00
869,56;-4,0000
870,12;33,000
870,67;-39,000
871,22;4,0000
871,77;27,000
872,33;-55,000
872,88;118,00
873,43;12,000
873,98;-22,000
874,54;75,000
875,09;-21,000
875,64;-12,000
876,19;89,000
876,74;-41,000
877,30;74,000
877,85;54,000
878,40;8,0000
878,95;7,0000
879,50;3,0000
880,06;66,000
880,61;37,000
881,16;70,000
881,71;9,0000
882,26;-7,0000
882,81;-16,000
883,37;116,00
883,92;97,000
884,47;-14,000
885,02;112,00
885,57;46,000
886,12;151,00
886,67;-53,000
887,22;60,000
887,78;-10,0000
888,33;23,000
888,88;60,000
889,43;96,000
889,98;31,000
890,53;60,000
891,08;79,000
891,63;-60,000
892,18;25,000
892,73;126,00
893,28;-18,000
893,83;-20,000
894,38;-82,000
894,93;12,000
895,48;13,000
896,03;29,000
896,59;5,0000
897,14;-1,0000
897,69;-43,000
898,24;27,000
898,79;-18,000
899,34;9,0000
899,89;102,00
900,44;-18,000
900,99;90,000
901,53;-25,000
902,08;9,0000
902,63;-40,000
903,18;9,0000
903,73;65,000
904,28;110,00
904,83;-63,000
905,38;12,000
905,93;64,000
906,48;-59,000
907,03;17,000
907,58;-22,000
908,13;-23,000
908,68;49,000
909,23;34,000
909,78;-54,000
910,32;26,000
910,87;24,000
911,42;80,000
911,97;44,000
912,52;80,000
913,07;-21,000
913,62;36,000
914,17;-40,000
914,71;40,000
915,26;185,00
915,81;64,000
916,36;-54,000
916,91;-57,000
917,46;58,000
918,00;14,000
918,55;22,000
919,10;19,000
919,65;-64,000
920,20;-20,000
920,74;-3,0000
921,29;17,000
921,84;-46,000
922,39;85,000
922,94;8,0000
923,48;-29,000
924,03;62,000
924,58;38,000
925,13;14,000
925,67;-94,000
926,22;57,000
926,77;-76,000
927,32;-60,000
927,86;71,000
928,41;-37,000
928,96;21,000
929,50;-84,000
930,05;-25,000
930,60;-2,0000
931,15;49,000
931,69;-96,000
932,24;-44,000
932,79;30,000
933,33;25,000
933,88;27,000
934,43;103,00
934,97;-4,0000
935,52;-18,000
936,07;-90,000
936,61;-22,000
937,16;-59,000
937,71;-33,000
938,25;26,000
938,80;-68,000
939,34;-123,00
939,89;-3,0000
940,44;-13,000
940,98;-55,000
941,53;36,000
942,07;-31,000
942,62;-31,000
943,17;95,000
943,71;45,000
944,26;-23,000
944,80;101,00
945,35;-38,000
945,89;-43,000
946,44;-67,000
946,99;0
947,53;70,000
948,08;38,000
948,62;-44,000
949,17;89,000
949,71;31,000
950,26;20,000
950,80;-41,000
951,35;-31,000
951,89;-56,000
952,44;26,000
952,98;-12,000
953,53;-21,000
954,07;-6,0000
954,62;12,000
955,16;-29,000
955,71;43,000
956,25;-14,000
956,79;10,0000
957,34;-37,000
957,88;-36,000
958,43;26,000
958,97;15,000
959,52;-43,000
960,06;11,000
960,60;107,00
961,15;23,000
961,69;-6,0000
962,24;-29,000
962,78;75,000
963,32;-63,000
963,87;-15,000
964,41;-20,000
964,96;-2,0000
965,50;-4,0000
966,04;1,0000
966,59;-40,000
967,13;-20,000
967,67;-63,000
968,22;-80,000
968,76;55,000
969,30;57,000
969,85;103,00
970,39;-27,000
970,93;68,000
971,47;88,000
972,02;71,000
972,56;59,000
973,10;104,00
973,65;20,000
974,19;73,000
974,73;66,000
975,27;-38,000
975,82;49,000
976,36;-29,000
976,90;-27,000
977,44;41,000
977,99;46,000
978,53;-38,000
979,07;57,000
979,61;21,000
980,16;62,000
980,70;9,0000
981,24;9,0000
981,78;-43,000
982,32;-80,000
982,87;60,000
983,41;80,000
983,95;92,000
984,49;37,000
985,03;83,000
985,57;-4,0000
986,12;66,000
986,66;-31,000
987,20;34,000
987,74;63,000
988,28;-58,000
988,82;63,000
989,36;34,000
989,91;0
990,45;55,000
990,99;-12,000
991,53;54,000
992,07;115,00
992,61;-34,000
993,15;23,000
993,69;-10,0000
994,23;31,000
994,77;90,000
995,31;45,000
995,86;-66,000
996,40;-19,000
996,94;-56,000
997,48;63,000
998,02;-27,000
998,56;38,000
999,10;-98,000
999,64;-13,000
1000,18;34,000
1000,72;28,000
1001,26;206,00
1001,80;-47,000
1002,34;19,000
1002,88;-8,0000
1003,42;30,000
1003,96;9,0000
1004,50;79,000
1005,04;-30,000
1005,58;46,000
1006,12;24,000
1006,66;38,000
1007,20;113,00
1007,73;-60,000
1008,27;127,00
1008,81;109,00
1009,35;39,000
1009,89;53,000
1010,43;5,0000
1010,97;6,0000
1011,51;-18,000
1012,05;16,000
1012,59;-5,0000
1013,13;35,000
1013,66;91,000
1014,20;41,000
1014,74;-20,000
1015,28;21,000
1015,82;34,000
1016,36;-27,000
1016,90;52,000
1017,43;-12,000
1017,97;59,000
1018,51;95,000
1019,05;82,000
1019,59;-14,000
1020,13;-44,000
1020,66;-74,000
1021,20;-49,000
1021,74;28,000
1022,28;-19,000
1022,81;58,000
1023,35;-35,000
1023,89;71,000
1024,43;-83,000
1024,97;53,000
1025,50;-42,000
1026,04;45,000
1026,58;3,0000
1027,12;58,000
1027,65;-6,0000
1028,19;-23,000
1028,73;-89,000
1029,26;52,000
1029,80;81,000
1030,34;-2,0000
1030,88;23,000
1031,41;-86,000
1031,95;-40,000
1032,49;-12,000
1033,02;79,000
1033,56;-135,00
1034,10;-63,000
1034,63;-31,000
1035,17;13,000
1035,71;-4,0000
1036,24;-8,0000
1036,78;-28,000
1037,32;-36,000
1037,85;1,0000
1038,39;-65,000
1038,92;80,000
1039,46;-77,000
1040,00;-43,000
1040,53;1,0000
1041,07;-39,000
1041,60;17,000
1042,14;-14,000
1042,68;-17,000
1043,21;-37,000
1043,75;8,0000
1044,28;-22,000
1044,82;-57,000
1045,35;-8,0000
1045,89;53,000
1046,42;-62,000
1046,96;-18,000
1047,49;20,000
1048,03;-70,000
1048,57;-29,000
1049,10;67,000
1049,64;30,000
1050,17;24,000
1050,70;20,000
1051,24;54,000
1051,77;22,000
1052,31;88,000
1052,84;-4,0000
1053,38;101,00
1053,91;-12,000
1054,45;-46,000
1054,98;48,000
1055,52;20,000
1056,05;-34,000
1056,59;48,000
1057,12;-66,000
1057,65;101,00
1058,19;103,00
1058,72;32,000
1059,26;-28,000
1059,79;-42,000
1060,32;52,000
1060,86;-4,0000
1061,39;-28,000
1061,93;1,0000
1062,46;10,0000
1062,99;-66,000
1063,53;46,000
1064,06;75,000
1064,59;-75,000
1065,13;28,000
1065,66;-42,000
1066,19;83,000
1066,73;43,000
1067,26;-12,000
1067,79;-28,000
1068,33;-66,000
1068,86;50,000
1069,39;-54,000
1069,92;24,000
1070,46;26,000
1070,99;0
1071,52;54,000
1072,05;112,00
1072,59;17,000
1073,12;41,000
1073,65;63,000
1074,18;56,000
1074,72;-36,000
1075,25;-10,0000
1075,78;13,000
1076,31;-90,000
1076,85;113,00
1077,38;130,00
1077,91;-49,000
1078,44;48,000
1078,97;59,000
1079,51;66,000
1080,04;-37,000
1080,57;-18,000
1081,10;-49,000
1081,63;28,000
1082,16;-126,00
1082,70;-46,000
1083,23;14,000
1083,76;94,000
1084,29;-68,000
1084,82;20,000
1085,35;95,000
1085,88;-7,0000
1086,41;5,0000
1086,94;-59,000
1087,48;44,000
1088,01;46,000
1088,54;-2,0000
1089,07;12,000
1089,60;-36,000
1090,13;64,000
1090,66;-8,0000
1091,19;60,000
1091,72;34,000
1092,25;-14,000
1092,78;56,000
1093,31;1,0000
1093,84;78,000
1094,37;-18,000
1094,90;18,000
1095,43;-103,00
1095,96;-10,0000
1096,49;-45,000
1097,02;27,000
1097,55;6,0000
1098,08;-52,000
1098,61;-85,000
1099,14;-1,0000
1099,67;27,000
1100,20;52,000
