M- 10 del, 3
Integration time: 5000 ms
Average: 1 scans
Nr of pixels used for smoothing: 0
Data measured with spectrometer serial number: 0604021S1
Wave   ;Sample
[nm]   ;[counts]
173,70;88,000
174,30;-9,0000
174,90;29,000
175,50;104,00
176,10;112,00
176,70;15,000
177,30;-3,0000
177,90;-23,000
178,50;-2,0000
179,10;109,00
179,70;7,0000
180,30;53,000
180,89;-40,000
181,49;75,000
182,09;-59,000
182,69;41,000
183,29;-12,000
183,89;6,0000
184,49;62,000
185,09;56,000
185,69;10,0000
186,29;65,000
186,89;-53,000
187,48;-35,000
188,08;-81,000
188,68;1,0000
189,28;25,000
189,88;9,0000
190,48;-17,000
191,08;18,000
191,68;108,00
192,28;12,000
192,87;-23,000
193,47;0
194,07;-26,000
194,67;-64,000
195,27;-27,000
195,87;65,000
196,47;-21,000
197,06;-32,000
197,66;-83,000
198,26;-7,0000
198,86;-96,000
199,46;22,000
200,06;81,000
200,66;43,000
201,25;-31,000
201,85;35,000
202,45;-42,000
203,05;73,000
203,65;-38,000
204,24;65,000
204,84;54,000
205,44;-96,000
206,04;-35,000
206,64;43,000
207,24;24,000
207,83;-2,0000
208,43;28,000
209,03;35,000
209,63;24,000
210,22;109,00
210,82;-19,000
211,42;-98,000
212,02;-122,00
212,62;-119,00
213,21;-74,000
213,81;40,000
214,41;25,000
215,01;76,000
215,60;58,000
216,20;48,000
216,80;5,0000
217,40;64,000
218,00;101,00
218,59;-82,000
219,19;57,000
219,79;42,000
220,38;-62,000
220,98;-49,000
221,58;79,000
222,18;18,000
222,77;69,000
223,37;5,0000
223,97;-46,000
224,57;-2,0000
225,16;16,000
225,76;74,000
226,36;-2,0000
226,95;99,000
227,55;37,000
228,15;40,000
228,75;-43,000
229,34;-95,000
229,94;49,000
230,54;121,00
231,13;-38,000
231,73;39,000
232,33;-49,000
232,92;82,000
233,52;82,000
234,12;-7,0000
234,71;90,000
235,31;53,000
235,91;10,0000
236,50;9,0000
237,10;30,000
237,70;-411,00
238,29;-37,000
238,89;24,000
239,49;45,000
240,08;55,000
240,68;-5,0000
241,28;112,00
241,87;52,000
242,47;12,000
243,06;61,000
243,66;1,0000
244,26;41,000
244,85;-23,000
245,45;1,0000
246,05;53,000
246,64;-29,000
247,24;-16,000
247,83;75,000
248,43;21,000
249,03;86,000
249,62;-92,000
250,22;4,0000
250,81;-21,000
251,41;-30,000
252,01;-70,000
252,60;-103,00
253,20;-11,000
253,79;39,000
254,39;53,000
254,98;95,000
255,58;83,000
256,18;122,00
256,77;-45,000
257,37;14,000
257,96;30,000
258,56;14,000
259,15;21,000
259,75;1,0000
260,34;-30,000
260,94;-61,000
261,53;155,00
262,13;2,0000
262,73;149,00
263,32;52,000
263,92;-65,000
264,51;124,00
265,11;56,000
265,70;-70,000
266,30;-13,000
266,89;21,000
267,49;42,000
268,08;50,000
268,68;24,000
269,27;5,0000
269,87;48,000
270,46;65,000
271,06;106,00
271,65;-14,000
272,25;29,000
272,84;28,000
273,44;-24,000
274,03;-22,000
274,62;42,000
275,22;65,000
275,81;-53,000
276,41;43,000
277,00;120,00
277,60;5,0000
278,19;-26,000
278,79;14,000
279,38;49,000
279,98;4,0000
280,57;46,000
281,16;-15,000
281,76;82,000
282,35;108,00
282,95;-57,000
283,54;106,00
284,14;-39,000
284,73;30,000
285,32;-34,000
285,92;105,00
286,51;7,0000
287,11;6,0000
287,70;-34,000
288,29;10,0000
288,89;45,000
289,48;-33,000
290,08;-8,0000
290,67;64,000
291,26;25,000
291,86;-12,000
292,45;-17,000
293,04;-73,000
293,64;28,000
294,23;63,000
294,83;19,000
295,42;22,000
296,01;21,000
296,61;91,000
297,20;0
297,79;85,000
298,39;36,000
298,98;126,00
299,57;125,00
300,17;13,000
300,76;9,0000
301,35;-22,000
301,95;71,000
302,54;48,000
303,13;37,000
303,73;9,0000
304,32;11,000
304,91;32,000
305,51;-26,000
306,10;-10,0000
306,69;69,000
307,28;141,00
307,88;43,000
308,47;-21,000
309,06;-4,0000
309,66;-53,000
310,25;-16,000
310,84;23,000
311,43;-10,0000
312,03;151,00
312,62;158,00
313,21;293,00
313,81;295,00
314,40;470,00
314,99;810,00
315,58;1244,0
316,18;1277,0
316,77;1164,0
317,36;1245,0
317,95;1067,0
318,54;907,00
319,14;686,00
319,73;212,00
320,32;129,00
320,91;13,000
321,51;71,000
322,10;11,000
322,69;16,000
323,28;47,000
323,87;-3,0000
324,47;46,000
325,06;72,000
325,65;33,000
326,24;56,000
326,83;69,000
327,43;105,00
328,02;53,000
328,61;181,00
329,20;22,000
329,79;126,00
330,39;93,000
330,98;175,00
331,57;206,00
332,16;233,00
332,75;176,00
333,34;332,00
333,93;443,00
334,53;488,00
335,12;896,00
335,71;2661,0
336,30;6253,0
336,89;9292,0
337,48;9703,0
338,07;9795,0
338,67;9729,0
339,26;9362,0
339,85;8104,0
340,44;5075,0
341,03;918,00
341,62;115,00
342,21;165,00
342,80;190,00
343,39;134,00
343,99;124,00
344,58;8,0000
345,17;105,00
345,76;70,000
346,35;27,000
346,94;45,000
347,53;122,00
348,12;202,00
348,71;162,00
349,30;220,00
349,89;379,00
350,48;458,00
351,07;519,00
351,66;749,00
352,26;1363,0
352,85;2677,0
353,44;3546,0
354,03;3645,0
354,62;3850,0
355,21;3929,0
355,80;5095,0
356,39;7367,0
356,98;11691
357,57;12885
358,16;12992
358,75;12903
359,34;12688
359,93;11790
360,52;9672,0
361,11;5104,0
361,70;569,00
362,29;202,00
362,88;183,00
363,47;172,00
364,06;146,00
364,65;231,00
365,24;153,00
365,83;177,00
366,42;272,00
367,01;422,00
367,60;299,00
368,19;357,00
368,78;455,00
369,37;429,00
369,95;854,00
370,54;1170,0
371,13;1300,0
371,72;1342,0
372,31;1354,0
372,90;1455,0
373,49;1710,0
374,08;2225,0
374,67;3458,0
375,26;4592,0
375,85;4891,0
376,44;4968,0
377,03;4733,0
377,61;4799,0
378,20;4447,0
378,79;4066,0
379,38;3991,0
379,97;6694,0
380,56;7477,0
381,15;7672,0
381,74;7289,0
382,33;7056,0
382,91;6138,0
383,50;4721,0
384,09;1614,0
384,68;244,00
385,27;251,00
385,86;196,00
386,45;177,00
387,03;242,00
387,62;253,00
388,21;246,00
388,80;473,00
389,39;326,00
389,98;385,00
390,57;349,00
391,15;323,00
391,74;475,00
392,33;377,00
392,92;580,00
393,51;932,00
394,09;1056,0
394,68;1007,0
395,27;922,00
395,86;1079,0
396,45;941,00
397,03;977,00
397,62;715,00
398,21;1053,0
398,80;1623,0
399,39;2559,0
399,97;2779,0
400,56;2778,0
401,15;2789,0
401,74;2676,0
402,32;2428,0
402,91;1966,0
403,50;1128,0
404,09;978,00
404,67;1542,0
405,26;2648,0
405,85;3135,0
406,44;3175,0
407,02;3372,0
407,61;3179,0
408,20;2906,0
408,78;2538,0
409,37;1454,0
409,96;562,00
410,55;441,00
411,13;341,00
411,72;410,00
412,31;350,00
412,89;293,00
413,48;315,00
414,07;387,00
414,65;350,00
415,24;511,00
415,83;374,00
416,42;338,00
417,00;313,00
417,59;221,00
418,18;296,00
418,76;470,00
419,35;854,00
419,94;879,00
420,52;1050,0
421,11;971,00
421,69;1040,0
422,28;902,00
422,87;768,00
423,45;586,00
424,04;327,00
424,63;398,00
425,21;655,00
425,80;1027,0
426,38;1582,0
426,97;1786,0
427,56;1905,0
428,14;1848,0
428,73;1746,0
429,31;1552,0
429,90;1242,0
430,49;531,00
431,07;365,00
431,66;275,00
432,24;485,00
432,83;530,00
433,42;848,00
434,00;1203,0
434,59;1251,0
435,17;1331,0
435,76;1247,0
436,34;1278,0
436,93;1051,0
437,51;903,00
438,10;439,00
438,69;94,000
439,27;58,000
439,86;155,00
440,44;122,00
441,03;261,00
441,61;270,00
442,20;122,00
442,78;195,00
443,37;232,00
443,95;268,00
444,54;67,000
445,12;149,00
445,71;182,00
446,29;-53,000
446,88;50,000
447,46;191,00
448,05;281,00
448,63;425,00
449,22;336,00
449,80;379,00
450,39;338,00
450,97;315,00
451,56;221,00
452,14;117,00
452,72;83,000
453,31;93,000
453,89;31,000
454,48;50,000
455,06;124,00
455,65;208,00
456,23;363,00
456,81;616,00
457,40;530,00
457,98;573,00
458,57;382,00
459,15;432,00
459,74;403,00
460,32;333,00
460,90;99,000
461,49;29,000
462,07;88,000
462,66;22,000
463,24;121,00
463,82;79,000
464,41;153,00
464,99;200,00
465,57;224,00
466,16;377,00
466,74;350,00
467,33;318,00
467,91;308,00
468,49;279,00
469,08;292,00
469,66;183,00
470,24;162,00
470,83;25,000
471,41;86,000
471,99;-8,0000
472,58;57,000
473,16;151,00
473,74;24,000
474,33;36,000
474,91;40,000
475,49;124,00
476,08;9,0000
476,66;43,000
477,24;97,000
477,82;99,000
478,41;160,00
478,99;117,00
479,57;29,000
480,16;57,000
480,74;178,00
481,32;186,00
481,90;51,000
482,49;162,00
483,07;113,00
483,65;114,00
484,23;139,00
484,82;144,00
485,40;61,000
485,98;11,000
486,56;131,00
487,15;25,000
487,73;45,000
488,31;32,000
488,89;64,000
489,47;0
490,06;39,000
490,64;67,000
491,22;184,00
491,80;82,000
492,39;164,00
492,97;230,00
493,55;236,00
494,13;203,00
494,71;55,000
495,29;57,000
495,88;0
496,46;62,000
497,04;2,0000
497,62;114,00
498,20;94,000
498,78;-3,0000
499,37;3,0000
499,95;-63,000
500,53;-25,000
501,11;51,000
501,69;100,000
502,27;65,000
502,85;81,000
503,44;-1,0000
504,02;100,000
504,60;61,000
505,18;-27,000
505,76;113,00
506,34;110,00
506,92;18,000
507,50;107,00
508,08;59,000
508,67;55,000
509,25;38,000
509,83;13,000
510,41;13,000
510,99;22,000
511,57;-13,000
512,15;133,00
512,73;30,000
513,31;27,000
513,89;60,000
514,47;95,000
515,05;3,0000
515,63;62,000
516,21;58,000
516,79;63,000
517,38;88,000
517,96;-7,0000
518,54;128,00
519,12;71,000
519,70;15,000
520,28;39,000
520,86;79,000
521,44;69,000
522,02;-41,000
522,60;53,000
523,18;86,000
523,76;-39,000
524,34;70,000
524,92;19,000
525,50;-2,0000
526,08;-32,000
526,66;29,000
527,24;-29,000
527,82;54,000
528,39;73,000
528,97;10,0000
529,55;3,0000
530,13;-15,000
530,71;145,00
531,29;211,00
531,87;72,000
532,45;21,000
533,03;51,000
533,61;33,000
534,19;132,00
534,77;100,000
535,35;123,00
535,93;-43,000
536,51;118,00
537,08;67,000
537,66;-47,000
538,24;89,000
538,82;-82,000
539,40;60,000
539,98;92,000
540,56;85,000
541,14;19,000
541,72;59,000
542,29;36,000
542,87;-42,000
543,45;192,00
544,03;-30,000
544,61;134,00
545,19;-87,000
545,77;25,000
546,34;-47,000
546,92;50,000
547,50;-36,000
548,08;75,000
548,66;14,000
549,23;-121,00
549,81;74,000
550,39;2,0000
550,97;65,000
551,55;-23,000
552,13;62,000
552,70;-11,000
553,28;30,000
553,86;-13,000
554,44;91,000
555,01;102,00
555,59;156,00
556,17;58,000
556,75;10,0000
557,33;28,000
557,90;194,00
558,48;-58,000
559,06;-82,000
559,64;76,000
560,21;-96,000
560,79;-4,0000
561,37;-33,000
561,95;-26,000
562,52;-60,000
563,10;69,000
563,68;50,000
564,25;-2,0000
564,83;88,000
565,41;63,000
565,99;-39,000
566,56;27,000
567,14;124,00
567,72;39,000
568,29;89,000
568,87;132,00
569,45;-84,000
570,02;32,000
570,60;32,000
571,18;21,000
571,75;8,0000
572,33;20,000
572,91;62,000
573,48;18,000
574,06;120,00
574,64;79,000
575,21;62,000
575,79;10,0000
576,37;183,00
576,94;86,000
577,52;108,00
578,09;-54,000
578,67;-17,000
579,25;73,000
579,82;91,000
580,40;62,000
580,97;75,000
581,55;33,000
582,13;96,000
582,70;3,0000
583,28;27,000
583,85;-6,0000
584,43;198,00
585,01;6,0000
585,58;-21,000
586,16;-24,000
586,73;72,000
587,31;68,000
587,88;44,000
588,46;21,000
589,03;11,000
589,61;61,000
590,18;115,00
590,76;60,000
591,34;41,000
591,91;9,0000
592,49;11,000
593,06;129,00
593,64;73,000
594,21;10,0000
594,79;-51,000
595,36;116,00
595,94;95,000
596,51;94,000
597,09;87,000
597,66;43,000
598,24;67,000
598,81;64,000
599,38;100,000
599,96;140,00
600,53;223,00
601,11;155,00
601,68;72,000
602,26;3,0000
602,83;122,00
603,41;82,000
603,98;85,000
604,56;87,000
605,13;113,00
605,70;97,000
606,28;4,0000
606,85;21,000
607,43;67,000
608,00;94,000
608,57;52,000
609,15;137,00
609,72;95,000
610,30;45,000
610,87;-34,000
611,44;-21,000
612,02;82,000
612,59;4,0000
613,16;141,00
613,74;-13,000
614,31;91,000
614,89;-6,0000
615,46;0
616,03;39,000
616,61;46,000
617,18;152,00
617,75;78,000
618,33;186,00
618,90;-110,00
619,47;15,000
620,05;32,000
620,62;5,0000
621,19;3,0000
621,77;7,0000
622,34;-75,000
622,91;38,000
623,48;122,00
624,06;55,000
624,63;-13,000
625,20;93,000
625,78;-7,0000
626,35;87,000
626,92;18,000
627,49;-81,000
628,07;-27,000
628,64;-25,000
629,21;54,000
629,78;80,000
630,36;95,000
630,93;99,000
631,50;70,000
632,07;9,0000
632,65;36,000
633,22;0
633,79;142,00
634,36;45,000
634,93;-9,0000
635,51;106,00
636,08;103,00
636,65;99,000
637,22;71,000
637,79;102,00
638,37;130,00
638,94;65,000
639,51;-10,0000
640,08;42,000
640,65;77,000
641,22;37,000
641,80;92,000
642,37;66,000
642,94;-62,000
643,51;64,000
644,08;62,000
644,65;81,000
645,22;80,000
645,80;57,000
646,37;108,00
646,94;82,000
647,51;39,000
648,08;168,00
648,65;166,00
649,22;74,000
649,79;46,000
650,36;93,000
650,93;152,00
651,51;398,00
652,08;135,00
652,65;89,000
653,22;117,00
653,79;188,00
654,36;99,000
654,93;218,00
655,50;96,000
656,07;203,00
656,64;123,00
657,21;-9,0000
657,78;164,00
658,35;99,000
658,92;146,00
659,49;88,000
660,06;174,00
660,63;148,00
661,20;218,00
661,77;259,00
662,34;151,00
662,91;244,00
663,48;256,00
664,05;155,00
664,62;128,00
665,19;205,00
665,76;211,00
666,33;161,00
666,90;180,00
667,47;123,00
668,04;184,00
668,61;213,00
669,18;265,00
669,75;205,00
670,32;195,00
670,89;240,00
671,46;279,00
672,03;176,00
672,60;200,00
673,17;97,000
673,74;145,00
674,30;133,00
674,87;153,00
675,44;120,00
676,01;102,00
676,58;126,00
677,15;188,00
677,72;103,00
678,29;156,00
678,86;103,00
679,42;216,00
679,99;141,00
680,56;174,00
681,13;95,000
681,70;149,00
682,27;166,00
682,84;116,00
683,40;29,000
683,97;25,000
684,54;68,000
685,11;44,000
685,68;85,000
686,25;123,00
686,81;122,00
687,38;80,000
687,95;7,0000
688,52;10,0000
689,09;29,000
689,65;131,00
690,22;108,00
690,79;28,000
691,36;47,000
691,92;32,000
692,49;-23,000
693,06;32,000
693,63;50,000
694,20;-45,000
694,76;-23,000
695,33;45,000
695,90;-77,000
696,47;118,00
697,03;62,000
697,60;6,0000
698,17;-40,000
698,73;47,000
699,30;65,000
699,87;-51,000
700,44;-3,0000
701,00;11,000
701,57;-7,0000
702,14;111,00
702,70;41,000
703,27;-6,0000
703,84;-83,000
704,40;27,000
704,97;34,000
705,54;109,00
706,10;44,000
706,67;-62,000
707,24;61,000
707,80;87,000
708,37;30,000
708,94;-28,000
709,50;143,00
710,07;-54,000
710,64;-31,000
711,20;104,00
711,77;47,000
712,33;69,000
712,90;-34,000
713,47;79,000
714,03;19,000
714,60;123,00
715,16;98,000
715,73;5,0000
716,30;53,000
716,86;45,000
717,43;24,000
717,99;83,000
718,56;95,000
719,12;51,000
719,69;62,000
720,26;58,000
720,82;121,00
721,39;81,000
721,95;-42,000
722,52;69,000
723,08;96,000
723,65;129,00
724,21;27,000
724,78;15,000
725,34;-14,000
725,91;81,000
726,47;119,00
727,04;32,000
727,60;164,00
728,17;35,000
728,73;-61,000
729,30;56,000
729,86;71,000
730,43;125,00
730,99;110,00
731,56;-90,000
732,12;90,000
732,68;94,000
733,25;119,00
733,81;179,00
734,38;93,000
734,94;98,000
735,51;68,000
736,07;127,00
736,63;88,000
737,20;139,00
737,76;102,00
738,33;139,00
738,89;64,000
739,46;134,00
740,02;94,000
740,58;111,00
741,15;-14,000
741,71;64,000
742,27;87,000
742,84;-17,000
743,40;60,000
743,97;-4,0000
744,53;91,000
745,09;-65,000
745,66;57,000
746,22;182,00
746,78;97,000
747,35;29,000
747,91;70,000
748,47;228,00
749,04;105,00
749,60;208,00
750,16;123,00
750,72;244,00
751,29;-7,0000
751,85;155,00
752,41;104,00
752,98;58,000
753,54;60,000
754,10;-33,000
754,66;-29,000
755,23;1,0000
755,79;68,000
756,35;92,000
756,91;99,000
757,48;116,00
758,04;111,00
758,60;23,000
759,16;142,00
759,73;151,00
760,29;87,000
760,85;142,00
761,41;42,000
761,98;140,00
762,54;92,000
763,10;79,000
763,66;68,000
764,22;53,000
764,79;66,000
765,35;24,000
765,91;52,000
766,47;117,00
767,03;16,000
767,59;-44,000
768,16;15,000
768,72;75,000
769,28;82,000
769,84;122,00
770,40;64,000
770,96;49,000
771,52;206,00
772,09;130,00
772,65;120,00
773,21;182,00
773,77;74,000
774,33;85,000
774,89;107,00
775,45;217,00
776,01;111,00
776,57;120,00
777,13;119,00
777,70;46,000
778,26;67,000
778,82;10,0000
779,38;96,000
779,94;-91,000
780,50;59,000
781,06;56,000
781,62;24,000
782,18;-106,00
782,74;11,000
783,30;84,000
783,86;-21,000
784,42;10,0000
784,98;42,000
785,54;68,000
786,10;-51,000
786,66;52,000
787,22;-75,000
787,78;88,000
788,34;68,000
788,90;17,000
789,46;3,0000
790,02;-57,000
790,58;2,0000
791,14;91,000
791,70;11,000
792,26;1,0000
792,82;-4,0000
793,38;324,00
793,94;4,0000
794,50;5,0000
795,06;-38,000
795,62;118,00
796,17;4,0000
796,73;30,000
797,29;67,000
797,85;2,0000
798,41;-15,000
798,97;51,000
799,53;53,000
800,09;73,000
800,65;-56,000
801,21;66,000
801,76;16,000
802,32;-52,000
802,88;-117,00
803,44;32,000
804,00;46,000
804,56;16,000
805,12;-16,000
805,67;-6,0000
806,23;4,0000
806,79;24,000
807,35;32,000
807,91;31,000
808,46;8,0000
809,02;-50,000
809,58;-58,000
810,14;5,0000
810,70;10,0000
811,26;-22,000
811,81;112,00
812,37;23,000
812,93;39,000
813,49;71,000
814,04;-34,000
814,60;-29,000
815,16;199,00
815,72;1,0000
816,27;85,000
816,83;26,000
817,39;44,000
817,95;81,000
818,50;-37,000
819,06;-19,000
819,62;-54,000
820,18;29,000
820,73;-110,00
821,29;-33,000
821,85;120,00
822,40;1,0000
822,96;117,00
823,52;-122,00
824,07;5,0000
824,63;8,0000
825,19;-3,0000
825,74;100,000
826,30;107,00
826,86;35,000
827,41;0
827,97;36,000
828,53;39,000
829,08;44,000
829,64;51,000
830,20;4,0000
830,75;-7,0000
831,31;111,00
831,86;108,00
832,42;52,000
832,98;43,000
833,53;3,0000
834,09;38,000
834,64;19,000
835,20;114,00
835,76;36,000
836,31;-7,0000
836,87;116,00
837,42;73,000
837,98;19,000
838,53;9,0000
839,09;-233,00
839,64;-15,000
840,20;-2,0000
840,75;-27,000
841,31;-28,000
841,87;89,000
842,42;162,00
842,98;56,000
843,53;48,000
844,09;-13,000
844,64;46,000
845,20;9,0000
845,75;7,0000
846,31;39,000
846,86;10,0000
847,41;92,000
847,97;-26,000
848,52;67,000
849,08;130,00
849,63;56,000
850,19;83,000
850,74;37,000
851,30;24,000
851,85;117,00
852,41;-21,000
852,96;68,000
853,51;-34,000
854,07;-23,000
854,62;-31,000
855,18;-42,000
855,73;52,000
856,28;67,000
856,84;-99,000
857,39;25,000
857,95;9,0000
858,50;43,000
859,05;106,00
859,61;-24,000
860,16;-15,000
860,71;77,000
861,27;32,000
861,82;45,000
862,37;34,000
862,93;68,000
863,48;39,000
864,03;89,000
864,59;-24,000
865,14;-60,000
865,69;63,000
866,25;-19,000
866,80;63,000
867,35;104,00
867,90;109,00
868,46;5,0000
869,01;47,000
869,56;128,00
870,12;34,000
870,67;73,000
871,22;44,000
871,77;51,000
872,33;85,000
872,88;99,000
873,43;37,000
873,98;76,000
874,54;69,000
875,09;114,00
875,64;5,0000
876,19;56,000
876,74;6,0000
877,30;13,000
877,85;39,000
878,40;51,000
878,95;26,000
879,50;36,000
880,06;-63,000
880,61;-93,000
881,16;54,000
881,71;85,000
882,26;121,00
882,81;87,000
883,37;-24,000
883,92;-17,000
884,47;51,000
885,02;-6,0000
885,57;15,000
886,12;175,00
886,67;-28,000
887,22;134,00
887,78;70,000
888,33;66,000
888,88;49,000
889,43;32,000
889,98;-2,0000
890,53;73,000
891,08;80,000
891,63;90,000
892,18;28,000
892,73;-31,000
893,28;49,000
893,83;113,00
894,38;26,000
894,93;-83,000
895,48;26,000
896,03;60,000
896,59;82,000
897,14;-45,000
897,69;-21,000
898,24;-33,000
898,79;-1,0000
899,34;72,000
899,89;166,00
900,44;-95,000
900,99;-22,000
901,53;17,000
902,08;137,00
902,63;-53,000
903,18;32,000
903,73;24,000
904,28;-2,0000
904,83;55,000
905,38;91,000
905,93;98,000
906,48;22,000
907,03;-69,000
907,58;-25,000
908,13;-28,000
908,68;79,000
909,23;194,00
909,78;0
910,32;32,000
910,87;72,000
911,42;-38,000
911,97;-17,000
912,52;99,000
913,07;83,000
913,62;37,000
914,17;-28,000
914,71;-94,000
915,26;10,0000
915,81;50,000
916,36;22,000
916,91;-31,000
917,46;46,000
918,00;15,000
918,55;95,000
919,10;60,000
919,65;86,000
920,20;79,000
920,74;41,000
921,29;-94,000
921,84;60,000
922,39;-24,000
922,94;14,000
923,48;57,000
924,03;23,000
924,58;16,000
925,13;-47,000
925,67;85,000
926,22;81,000
926,77;7,0000
927,32;58,000
927,86;13,000
928,41;-45,000
928,96;52,000
929,50;34,000
930,05;43,000
930,60;45,000
931,15;33,000
931,69;-1,0000
932,24;26,000
932,79;20,000
933,33;17,000
933,88;75,000
934,43;22,000
934,97;-47,000
935,52;5,0000
936,07;-4,0000
936,61;33,000
937,16;-28,000
937,71;41,000
938,25;-12,000
938,80;47,000
939,34;6,0000
939,89;22,000
940,44;72,000
940,98;98,000
941,53;11,000
942,07;-21,000
942,62;-73,000
943,17;-135,00
943,71;-32,000
944,26;-14,000
944,80;72,000
945,35;-31,000
945,89;-69,000
946,44;-3,0000
946,99;61,000
947,53;98,000
948,08;118,00
948,62;15,000
949,17;80,000
949,71;70,000
950,26;-99,000
950,80;-26,000
951,35;19,000
951,89;-29,000
952,44;136,00
952,98;-61,000
953,53;32,000
954,07;27,000
954,62;45,000
955,16;42,000
955,71;87,000
956,25;49,000
956,79;-20,000
957,34;37,000
957,88;-81,000
958,43;49,000
958,97;-100,000
959,52;-75,000
960,06;15,000
960,60;48,000
961,15;-3,0000
961,69;31,000
962,24;-352,00
962,78;1,0000
963,32;-14,000
963,87;-18,000
964,41;108,00
964,96;25,000
965,50;23,000
966,04;16,000
966,59;-65,000
967,13;57,000
967,67;-32,000
968,22;63,000
968,76;25,000
969,30;29,000
969,85;12,000
970,39;71,000
970,93;-99,000
971,47;-19,000
972,02;27,000
972,56;-3,0000
973,10;-72,000
973,65;-39,000
974,19;28,000
974,73;-66,000
975,27;44,000
975,82;68,000
976,36;0
976,90;-25,000
977,44;-58,000
977,99;-9,0000
978,53;-19,000
979,07;171,00
979,61;12,000
980,16;-53,000
980,70;-45,000
981,24;65,000
981,78;23,000
982,32;88,000
982,87;21,000
983,41;-11,000
983,95;53,000
984,49;22,000
985,03;-12,000
985,57;-80,000
986,12;-22,000
986,66;96,000
987,20;35,000
987,74;-58,000
988,28;-77,000
988,82;13,000
989,36;-12,000
989,91;-15,000
990,45;11,000
990,99;-61,000
991,53;1,0000
992,07;9,0000
992,61;28,000
993,15;-30,000
993,69;15,000
994,23;-46,000
994,77;37,000
995,31;-54,000
995,86;-34,000
996,40;-5,0000
996,94;40,000
997,48;-152,00
998,02;7,0000
998,56;-8,0000
999,10;-16,000
999,64;36,000
1000,18;-35,000
1000,72;70,000
1001,26;-48,000
1001,80;117,00
1002,34;25,000
1002,88;-22,000
1003,42;-18,000
1003,96;26,000
1004,50;-119,00
1005,04;-20,000
1005,58;21,000
1006,12;-1,0000
1006,66;64,000
1007,20;28,000
1007,73;189,00
1008,27;-56,000
1008,81;-28,000
1009,35;-16,000
1009,89;54,000
1010,43;93,000
1010,97;39,000
1011,51;-55,000
1012,05;-79,000
1012,59;21,000
1013,13;78,000
1013,66;31,000
1014,20;23,000
1014,74;63,000
1015,28;-55,000
1015,82;-48,000
1016,36;-17,000
1016,90;4,0000
1017,43;-17,000
1017,97;115,00
1018,51;7,0000
1019,05;17,000
1019,59;93,000
1020,13;61,000
1020,66;-91,000
1021,20;-11,000
1021,74;66,000
1022,28;44,000
1022,81;24,000
1023,35;48,000
1023,89;18,000
1024,43;95,000
1024,97;-4,0000
1025,50;-27,000
1026,04;-12,000
1026,58;-2,0000
1027,12;-100,000
1027,65;81,000
1028,19;49,000
1028,73;79,000
1029,26;-68,000
1029,80;145,00
1030,34;62,000
1030,88;10,0000
1031,41;-47,000
1031,95;126,00
1032,49;33,000
1033,02;57,000
1033,56;-20,000
1034,10;75,000
1034,63;30,000
1035,17;51,000
1035,71;6,0000
1036,24;2,0000
1036,78;15,000
1037,32;-8,0000
1037,85;-1,0000
1038,39;87,000
1038,92;22,000
1039,46;4,0000
1040,00;104,00
1040,53;57,000
1041,07;-11,000
1041,60;-97,000
1042,14;100,000
1042,68;112,00
1043,21;-63,000
1043,75;-29,000
1044,28;-6,0000
1044,82;33,000
1045,35;-34,000
1045,89;-114,00
1046,42;17,000
1046,96;-39,000
1047,49;-112,00
1048,03;110,00
1048,57;-74,000
1049,10;-104,00
1049,64;-231,00
1050,17;65,000
1050,70;14,000
1051,24;60,000
1051,77;25,000
1052,31;-56,000
1052,84;-21,000
1053,38;-33,000
1053,91;3,0000
1054,45;94,000
1054,98;-17,000
1055,52;20,000
1056,05;35,000
1056,59;-26,000
1057,12;-25,000
1057,65;-14,000
1058,19;16,000
1058,72;-35,000
1059,26;95,000
1059,79;-7,0000
1060,32;54,000
1060,86;53,000
1061,39;65,000
1061,93;52,000
1062,46;1,0000
1062,99;29,000
1063,53;42,000
1064,06;-75,000
1064,59;68,000
1065,13;82,000
1065,66;-9,0000
1066,19;9,0000
1066,73;-16,000
1067,26;0
1067,79;8,0000
1068,33;-47,000
1068,86;-32,000
1069,39;-58,000
1069,92;98,000
1070,46;55,000
1070,99;5,0000
1071,52;1,0000
1072,05;11,000
1072,59;9,0000
1073,12;38,000
1073,65;64,000
1074,18;-50,000
1074,72;-5,0000
1075,25;27,000
1075,78;56,000
1076,31;-5,0000
1076,85;34,000
1077,38;-38,000
1077,91;50,000
1078,44;51,000
1078,97;-33,000
1079,51;2,0000
1080,04;-37,000
1080,57;-8,0000
1081,10;97,000
1081,63;4,0000
1082,16;11,000
1082,70;51,000
1083,23;-41,000
1083,76;-5,0000
1084,29;147,00
1084,82;23,000
1085,35;23,000
1085,88;-24,000
1086,41;55,000
1086,94;48,000
1087,48;2,0000
1088,01;-34,000
1088,54;86,000
1089,07;43,000
1089,60;-95,000
1090,13;25,000
1090,66;39,000
1091,19;5,0000
1091,72;-14,000
1092,25;-5,0000
1092,78;130,00
1093,31;8,0000
1093,84;2,0000
1094,37;33,000
1094,90;-12,000
1095,43;-15,000
1095,96;52,000
1096,49;36,000
1097,02;59,000
1097,55;-5,0000
1098,08;4,0000
1098,61;31,000
1099,14;54,000
1099,67;-35,000
1100,20;11,000
