M- 20 del, 1
Integration time: 5000 ms
Average: 1 scans
Nr of pixels used for smoothing: 0
Data measured with spectrometer serial number: 0604021S1
Wave   ;Sample
[nm]   ;[counts]
173,70;56,000
174,30;64,000
174,90;35,000
175,50;111,00
176,10;39,000
176,70;13,000
177,30;-25,000
177,90;-30,000
178,50;27,000
179,10;110,00
179,70;91,000
180,30;20,000
180,89;34,000
181,49;100,000
182,09;94,000
182,69;41,000
183,29;30,000
183,89;110,00
184,49;100,000
185,09;-9,0000
185,69;-23,000
186,29;44,000
186,89;-28,000
187,48;85,000
188,08;1,0000
188,68;118,00
189,28;51,000
189,88;52,000
190,48;34,000
191,08;-26,000
191,68;48,000
192,28;31,000
192,87;55,000
193,47;103,00
194,07;64,000
194,67;62,000
195,27;-85,000
195,87;121,00
196,47;43,000
197,06;65,000
197,66;80,000
198,26;84,000
198,86;85,000
199,46;-69,000
200,06;-21,000
200,66;127,00
201,25;111,00
201,85;62,000
202,45;91,000
203,05;133,00
203,65;-12,000
204,24;104,00
204,84;77,000
205,44;-16,000
206,04;40,000
206,64;134,00
207,24;22,000
207,83;88,000
208,43;-2,0000
209,03;30,000
209,63;78,000
210,22;77,000
210,82;70,000
211,42;100,000
212,02;52,000
212,62;-82,000
213,21;101,00
213,81;34,000
214,41;54,000
215,01;183,00
215,60;9,0000
216,20;-1,0000
216,80;82,000
217,40;100,000
218,00;100,000
218,59;108,00
219,19;52,000
219,79;76,000
220,38;62,000
220,98;-23,000
221,58;70,000
222,18;61,000
222,77;72,000
223,37;100,000
223,97;72,000
224,57;51,000
225,16;39,000
225,76;98,000
226,36;4,0000
226,95;36,000
227,55;62,000
228,15;73,000
228,75;136,00
229,34;87,000
229,94;69,000
230,54;98,000
231,13;54,000
231,73;83,000
232,33;95,000
232,92;9,0000
233,52;-34,000
234,12;20,000
234,71;-51,000
235,31;204,00
235,91;32,000
236,50;-21,000
237,10;41,000
237,70;361,00
238,29;11,000
238,89;73,000
239,49;56,000
240,08;40,000
240,68;-5,0000
241,28;83,000
241,87;-2,0000
242,47;128,00
243,06;30,000
243,66;79,000
244,26;46,000
244,85;76,000
245,45;-14,000
246,05;36,000
246,64;-33,000
247,24;100,000
247,83;19,000
248,43;16,000
249,03;-75,000
249,62;-4,0000
250,22;8,0000
250,81;54,000
251,41;25,000
252,01;68,000
252,60;67,000
253,20;98,000
253,79;29,000
254,39;28,000
254,98;35,000
255,58;64,000
256,18;78,000
256,77;15,000
257,37;66,000
257,96;23,000
258,56;71,000
259,15;-12,000
259,75;72,000
260,34;148,00
260,94;12,000
261,53;173,00
262,13;80,000
262,73;-22,000
263,32;16,000
263,92;177,00
264,51;-10,0000
265,11;49,000
265,70;-82,000
266,30;38,000
266,89;184,00
267,49;1,0000
268,08;-5,0000
268,68;-27,000
269,27;-14,000
269,87;34,000
270,46;63,000
271,06;2,0000
271,65;163,00
272,25;83,000
272,84;-10,0000
273,44;82,000
274,03;128,00
274,62;-55,000
275,22;1,0000
275,81;62,000
276,41;172,00
277,00;-71,000
277,60;37,000
278,19;161,00
278,79;4,0000
279,38;0
279,98;55,000
280,57;116,00
281,16;43,000
281,76;60,000
282,35;42,000
282,95;112,00
283,54;73,000
284,14;-32,000
284,73;30,000
285,32;-63,000
285,92;-3,0000
286,51;-7,0000
287,11;-11,000
287,70;1,0000
288,29;71,000
288,89;155,00
289,48;9,0000
290,08;12,000
290,67;81,000
291,26;91,000
291,86;14,000
292,45;-40,000
293,04;-12,000
293,64;30,000
294,23;100,000
294,83;19,000
295,42;45,000
296,01;51,000
296,61;47,000
297,20;44,000
297,79;30,000
298,39;21,000
298,98;82,000
299,57;103,00
300,17;110,00
300,76;32,000
301,35;11,000
301,95;114,00
302,54;7,0000
303,13;24,000
303,73;18,000
304,32;42,000
304,91;-18,000
305,51;179,00
306,10;69,000
306,69;27,000
307,28;112,00
307,88;-28,000
308,47;30,000
309,06;25,000
309,66;-64,000
310,25;144,00
310,84;80,000
311,43;10,0000
312,03;33,000
312,62;78,000
313,21;148,00
313,81;37,000
314,40;116,00
314,99;141,00
315,58;159,00
316,18;281,00
316,77;334,00
317,36;204,00
317,95;223,00
318,54;145,00
319,14;161,00
319,73;23,000
320,32;112,00
320,91;56,000
321,51;34,000
322,10;20,000
322,69;51,000
323,28;65,000
323,87;-11,000
324,47;91,000
325,06;91,000
325,65;170,00
326,24;-57,000
326,83;-7,0000
327,43;-272,00
328,02;135,00
328,61;-6,0000
329,20;12,000
329,79;150,00
330,39;31,000
330,98;79,000
331,57;-42,000
332,16;-7,0000
332,75;66,000
333,34;135,00
333,93;181,00
334,53;79,000
335,12;217,00
335,71;605,00
336,30;1190,0
336,89;1823,0
337,48;1877,0
338,07;1710,0
338,67;1789,0
339,26;1634,0
339,85;1454,0
340,44;993,00
341,03;223,00
341,62;82,000
342,21;141,00
342,80;91,000
343,39;129,00
343,99;100,000
344,58;15,000
345,17;106,00
345,76;82,000
346,35;32,000
346,94;91,000
347,53;106,00
348,12;88,000
348,71;68,000
349,30;118,00
349,89;123,00
350,48;118,00
351,07;88,000
351,66;176,00
352,26;353,00
352,85;504,00
353,44;679,00
354,03;606,00
354,62;736,00
355,21;787,00
355,80;912,00
356,39;1342,0
356,98;2351,0
357,57;2485,0
358,16;2546,0
358,75;2465,0
359,34;2298,0
359,93;2156,0
360,52;1694,0
361,11;827,00
361,70;112,00
362,29;142,00
362,88;94,000
363,47;78,000
364,06;-1,0000
364,65;59,000
365,24;-19,000
365,83;28,000
366,42;147,00
367,01;111,00
367,60;252,00
368,19;184,00
368,78;4,0000
369,37;159,00
369,95;353,00
370,54;254,00
371,13;345,00
371,72;244,00
372,31;290,00
372,90;303,00
373,49;444,00
374,08;474,00
374,67;639,00
375,26;961,00
375,85;891,00
376,44;970,00
377,03;842,00
377,61;760,00
378,20;554,00
378,79;773,00
379,38;851,00
379,97;1300,0
380,56;1332,0
381,15;1391,0
381,74;1211,0
382,33;1225,0
382,91;1040,0
383,50;717,00
384,09;391,00
384,68;113,00
385,27;38,000
385,86;27,000
386,45;157,00
387,03;145,00
387,62;93,000
388,21;137,00
388,80;69,000
389,39;85,000
389,98;34,000
390,57;136,00
391,15;198,00
391,74;84,000
392,33;119,00
392,92;126,00
393,51;184,00
394,09;138,00
394,68;240,00
395,27;168,00
395,86;239,00
396,45;282,00
397,03;205,00
397,62;216,00
398,21;207,00
398,80;368,00
399,39;515,00
399,97;517,00
400,56;504,00
401,15;438,00
401,74;577,00
402,32;434,00
402,91;321,00
403,50;170,00
404,09;259,00
404,67;340,00
405,26;524,00
405,85;592,00
406,44;704,00
407,02;630,00
407,61;511,00
408,20;538,00
408,78;431,00
409,37;300,00
409,96;142,00
410,55;65,000
411,13;105,00
411,72;91,000
412,31;83,000
412,89;60,000
413,48;48,000
414,07;141,00
414,65;34,000
415,24;83,000
415,83;89,000
416,42;176,00
417,00;176,00
417,59;8,0000
418,18;65,000
418,76;76,000
419,35;170,00
419,94;214,00
420,52;81,000
421,11;260,00
421,69;174,00
422,28;237,00
422,87;174,00
423,45;150,00
424,04;247,00
424,63;141,00
425,21;104,00
425,80;199,00
426,38;252,00
426,97;331,00
427,56;301,00
428,14;480,00
428,73;285,00
429,31;333,00
429,90;231,00
430,49;171,00
431,07;64,000
431,66;161,00
432,24;104,00
432,83;150,00
433,42;145,00
434,00;210,00
434,59;424,00
435,17;274,00
435,76;375,00
436,34;276,00
436,93;163,00
437,51;246,00
438,10;71,000
438,69;47,000
439,27;95,000
439,86;22,000
440,44;45,000
441,03;100,000
441,61;187,00
442,20;181,00
442,78;120,00
443,37;140,00
443,95;104,00
444,54;-61,000
445,12;25,000
445,71;-29,000
446,29;26,000
446,88;67,000
447,46;70,000
448,05;191,00
448,63;160,00
449,22;66,000
449,80;108,00
450,39;43,000
450,97;52,000
451,56;50,000
452,14;73,000
452,72;64,000
453,31;43,000
453,89;-11,000
454,48;39,000
455,06;100,000
455,65;141,00
456,23;83,000
456,81;246,00
457,40;143,00
457,98;114,00
458,57;174,00
459,15;165,00
459,74;68,000
460,32;103,00
460,90;45,000
461,49;117,00
462,07;88,000
462,66;167,00
463,24;85,000
463,82;87,000
464,41;101,00
464,99;123,00
465,57;9,0000
466,16;68,000
466,74;175,00
467,33;135,00
467,91;99,000
468,49;60,000
469,08;108,00
469,66;94,000
470,24;7,0000
470,83;50,000
471,41;79,000
471,99;107,00
472,58;100,000
473,16;42,000
473,74;124,00
474,33;25,000
474,91;104,00
475,49;51,000
476,08;121,00
476,66;87,000
477,24;106,00
477,82;14,000
478,41;48,000
478,99;123,00
479,57;140,00
480,16;11,000
480,74;73,000
481,32;86,000
481,90;108,00
482,49;21,000
483,07;54,000
483,65;243,00
484,23;-25,000
484,82;70,000
485,40;129,00
485,98;43,000
486,56;156,00
487,15;117,00
487,73;20,000
488,31;144,00
488,89;106,00
489,47;139,00
490,06;153,00
490,64;28,000
491,22;150,00
491,80;30,000
492,39;66,000
492,97;28,000
493,55;40,000
494,13;128,00
494,71;-6,0000
495,29;85,000
495,88;138,00
496,46;78,000
497,04;115,00
497,62;-74,000
498,20;5,0000
498,78;158,00
499,37;43,000
499,95;6,0000
500,53;68,000
501,11;97,000
501,69;54,000
502,27;-14,000
502,85;58,000
503,44;-34,000
504,02;115,00
504,60;117,00
505,18;141,00
505,76;31,000
506,34;-10,0000
506,92;113,00
507,50;110,00
508,08;38,000
508,67;30,000
509,25;26,000
509,83;81,000
510,41;64,000
510,99;28,000
511,57;116,00
512,15;-10,0000
512,73;-4,0000
513,31;103,00
513,89;-47,000
514,47;126,00
515,05;48,000
515,63;16,000
516,21;212,00
516,79;27,000
517,38;129,00
517,96;12,000
518,54;-20,000
519,12;70,000
519,70;159,00
520,28;90,000
520,86;119,00
521,44;4,0000
522,02;28,000
522,60;37,000
523,18;57,000
523,76;42,000
524,34;83,000
524,92;68,000
525,50;2,0000
526,08;141,00
526,66;132,00
527,24;114,00
527,82;-17,000
528,39;95,000
528,97;50,000
529,55;36,000
530,13;102,00
530,71;26,000
531,29;49,000
531,87;-6,0000
532,45;72,000
533,03;8,0000
533,61;151,00
534,19;177,00
534,77;88,000
535,35;33,000
535,93;62,000
536,51;9,0000
537,08;-150,00
537,66;38,000
538,24;53,000
538,82;176,00
539,40;114,00
539,98;158,00
540,56;35,000
541,14;179,00
541,72;111,00
542,29;48,000
542,87;107,00
543,45;140,00
544,03;202,00
544,61;64,000
545,19;92,000
545,77;162,00
546,34;149,00
546,92;143,00
547,50;181,00
548,08;92,000
548,66;128,00
549,23;282,00
549,81;67,000
550,39;171,00
550,97;37,000
551,55;72,000
552,13;120,00
552,70;149,00
553,28;13,000
553,86;23,000
554,44;81,000
555,01;119,00
555,59;111,00
556,17;31,000
556,75;67,000
557,33;56,000
557,90;55,000
558,48;105,00
559,06;69,000
559,64;112,00
560,21;-23,000
560,79;7,0000
561,37;-1,0000
561,95;39,000
562,52;74,000
563,10;150,00
563,68;94,000
564,25;21,000
564,83;30,000
565,41;70,000
565,99;98,000
566,56;20,000
567,14;107,00
567,72;182,00
568,29;17,000
568,87;227,00
569,45;208,00
570,02;22,000
570,60;81,000
571,18;63,000
571,75;91,000
572,33;57,000
572,91;41,000
573,48;79,000
574,06;-74,000
574,64;259,00
575,21;88,000
575,79;79,000
576,37;24,000
576,94;148,00
577,52;58,000
578,09;115,00
578,67;18,000
579,25;148,00
579,82;72,000
580,40;198,00
580,97;154,00
581,55;108,00
582,13;119,00
582,70;119,00
583,28;79,000
583,85;1,0000
584,43;44,000
585,01;78,000
585,58;50,000
586,16;120,00
586,73;23,000
587,31;172,00
587,88;135,00
588,46;146,00
589,03;153,00
589,61;119,00
590,18;113,00
590,76;28,000
591,34;75,000
591,91;89,000
592,49;-8,0000
593,06;103,00
593,64;97,000
594,21;86,000
594,79;101,00
595,36;105,00
595,94;64,000
596,51;51,000
597,09;19,000
597,66;91,000
598,24;57,000
598,81;50,000
599,38;76,000
599,96;60,000
600,53;59,000
601,11;17,000
601,68;176,00
602,26;141,00
602,83;173,00
603,41;153,00
603,98;91,000
604,56;19,000
605,13;137,00
605,70;59,000
606,28;7,0000
606,85;103,00
607,43;65,000
608,00;48,000
608,57;77,000
609,15;84,000
609,72;110,00
610,30;118,00
610,87;131,00
611,44;115,00
612,02;280,00
612,59;110,00
613,16;244,00
613,74;183,00
614,31;161,00
614,89;83,000
615,46;110,00
616,03;223,00
616,61;15,000
617,18;76,000
617,75;10,0000
618,33;83,000
618,90;73,000
619,47;179,00
620,05;90,000
620,62;107,00
621,19;101,00
621,77;108,00
622,34;132,00
622,91;212,00
623,48;114,00
624,06;35,000
624,63;56,000
625,20;103,00
625,78;148,00
626,35;68,000
626,92;151,00
627,49;58,000
628,07;4,0000
628,64;82,000
629,21;85,000
629,78;134,00
630,36;65,000
630,93;54,000
631,50;64,000
632,07;33,000
632,65;7,0000
633,22;42,000
633,79;-13,000
634,36;74,000
634,93;43,000
635,51;126,00
636,08;17,000
636,65;47,000
637,22;93,000
637,79;223,00
638,37;49,000
638,94;155,00
639,51;114,00
640,08;83,000
640,65;33,000
641,22;67,000
641,80;119,00
642,37;-97,000
642,94;66,000
643,51;47,000
644,08;110,00
644,65;24,000
645,22;12,000
645,80;132,00
646,37;114,00
646,94;45,000
647,51;78,000
648,08;188,00
648,65;77,000
649,22;-10,0000
649,79;14,000
650,36;187,00
650,93;143,00
651,51;26,000
652,08;39,000
652,65;174,00
653,22;84,000
653,79;38,000
654,36;73,000
654,93;131,00
655,50;138,00
656,07;96,000
656,64;144,00
657,21;29,000
657,78;79,000
658,35;29,000
658,92;99,000
659,49;139,00
660,06;31,000
660,63;105,00
661,20;47,000
661,77;55,000
662,34;237,00
662,91;100,000
663,48;86,000
664,05;99,000
664,62;92,000
665,19;66,000
665,76;77,000
666,33;82,000
666,90;87,000
667,47;144,00
668,04;139,00
668,61;55,000
669,18;92,000
669,75;55,000
670,32;164,00
670,89;70,000
671,46;96,000
672,03;139,00
672,60;103,00
673,17;192,00
673,74;101,00
674,30;99,000
674,87;152,00
675,44;92,000
676,01;148,00
676,58;136,00
677,15;105,00
677,72;213,00
678,29;51,000
678,86;14,000
679,42;91,000
679,99;66,000
680,56;146,00
681,13;48,000
681,70;95,000
682,27;82,000
682,84;210,00
683,40;79,000
683,97;109,00
684,54;72,000
685,11;79,000
685,68;20,000
686,25;87,000
686,81;3,0000
687,38;112,00
687,95;149,00
688,52;110,00
689,09;50,000
689,65;-49,000
690,22;29,000
690,79;49,000
691,36;50,000
691,92;95,000
692,49;55,000
693,06;143,00
693,63;47,000
694,20;144,00
694,76;124,00
695,33;33,000
695,90;84,000
696,47;152,00
697,03;146,00
697,60;-1,0000
698,17;29,000
698,73;-7,0000
699,30;123,00
699,87;100,000
700,44;112,00
701,00;-4,0000
701,57;44,000
702,14;48,000
702,70;62,000
703,27;43,000
703,84;64,000
704,40;102,00
704,97;102,00
705,54;53,000
706,10;131,00
706,67;23,000
707,24;-27,000
707,80;-1,0000
708,37;41,000
708,94;31,000
709,50;53,000
710,07;103,00
710,64;34,000
711,20;115,00
711,77;135,00
712,33;108,00
712,90;70,000
713,47;188,00
714,03;77,000
714,60;-540,00
715,16;52,000
715,73;28,000
716,30;94,000
716,86;44,000
717,43;12,000
717,99;-18,000
718,56;267,00
719,12;97,000
719,69;97,000
720,26;155,00
720,82;109,00
721,39;69,000
721,95;124,00
722,52;63,000
723,08;-53,000
723,65;141,00
724,21;44,000
724,78;79,000
725,34;131,00
725,91;17,000
726,47;48,000
727,04;86,000
727,60;68,000
728,17;157,00
728,73;140,00
729,30;138,00
729,86;72,000
730,43;69,000
730,99;115,00
731,56;130,00
732,12;141,00
732,68;77,000
733,25;61,000
733,81;108,00
734,38;87,000
734,94;176,00
735,51;158,00
736,07;57,000
736,63;102,00
737,20;112,00
737,76;264,00
738,33;94,000
738,89;49,000
739,46;59,000
740,02;14,000
740,58;100,000
741,15;100,000
741,71;69,000
742,27;11,000
742,84;-18,000
743,40;79,000
743,97;114,00
744,53;15,000
745,09;67,000
745,66;78,000
746,22;75,000
746,78;53,000
747,35;50,000
747,91;68,000
748,47;127,00
749,04;100,000
749,60;131,00
750,16;152,00
750,72;131,00
751,29;56,000
751,85;85,000
752,41;116,00
752,98;112,00
753,54;8,0000
754,10;81,000
754,66;42,000
755,23;196,00
755,79;49,000
756,35;83,000
756,91;69,000
757,48;110,00
758,04;13,000
758,60;102,00
759,16;83,000
759,73;7,0000
760,29;-18,000
760,85;90,000
761,41;38,000
761,98;211,00
762,54;23,000
763,10;-67,000
763,66;32,000
764,22;85,000
764,79;44,000
765,35;-6,0000
765,91;102,00
766,47;71,000
767,03;105,00
767,59;42,000
768,16;129,00
768,72;68,000
769,28;165,00
769,84;67,000
770,40;66,000
770,96;117,00
771,52;182,00
772,09;152,00
772,65;76,000
773,21;1,0000
773,77;97,000
774,33;100,000
774,89;70,000
775,45;104,00
776,01;28,000
776,57;67,000
777,13;86,000
777,70;97,000
778,26;84,000
778,82;157,00
779,38;142,00
779,94;22,000
780,50;53,000
781,06;-52,000
781,62;122,00
782,18;64,000
782,74;164,00
783,30;14,000
783,86;41,000
784,42;156,00
784,98;3,0000
785,54;154,00
786,10;138,00
786,66;108,00
787,22;121,00
787,78;131,00
788,34;4,0000
788,90;115,00
789,46;22,000
790,02;112,00
790,58;-32,000
791,14;-6,0000
791,70;56,000
792,26;62,000
792,82;135,00
793,38;6,0000
793,94;-33,000
794,50;140,00
795,06;91,000
795,62;57,000
796,17;97,000
796,73;-71,000
797,29;22,000
797,85;95,000
798,41;44,000
798,97;96,000
799,53;42,000
800,09;52,000
800,65;5,0000
801,21;75,000
801,76;33,000
802,32;76,000
802,88;119,00
803,44;93,000
804,00;145,00
804,56;14,000
805,12;82,000
805,67;119,00
806,23;87,000
806,79;26,000
807,35;170,00
807,91;76,000
808,46;67,000
809,02;3,0000
809,58;56,000
810,14;159,00
810,70;18,000
811,26;94,000
811,81;55,000
812,37;56,000
812,93;104,00
813,49;70,000
814,04;48,000
814,60;79,000
815,16;24,000
815,72;28,000
816,27;42,000
816,83;35,000
817,39;93,000
817,95;51,000
818,50;0
819,06;121,00
819,62;4,0000
820,18;99,000
820,73;147,00
821,29;37,000
821,85;137,00
822,40;12,000
822,96;63,000
823,52;140,00
824,07;49,000
824,63;43,000
825,19;60,000
825,74;23,000
826,30;50,000
826,86;74,000
827,41;136,00
827,97;64,000
828,53;-12,000
829,08;73,000
829,64;-9,0000
830,20;9,0000
830,75;-14,000
831,31;62,000
831,86;52,000
832,42;-3,0000
832,98;89,000
833,53;-19,000
834,09;105,00
834,64;47,000
835,20;55,000
835,76;62,000
836,31;74,000
836,87;77,000
837,42;170,00
837,98;4,0000
838,53;17,000
839,09;39,000
839,64;49,000
840,20;35,000
840,75;54,000
841,31;77,000
841,87;18,000
842,42;35,000
842,98;58,000
843,53;99,000
844,09;67,000
844,64;21,000
845,20;28,000
845,75;101,00
846,31;97,000
846,86;30,000
847,41;-17,000
847,97;77,000
848,52;181,00
849,08;46,000
849,63;21,000
850,19;90,000
850,74;-39,000
851,30;11,000
851,85;107,00
852,41;-63,000
852,96;89,000
853,51;43,000
854,07;43,000
854,62;46,000
855,18;22,000
855,73;-45,000
856,28;8,0000
856,84;85,000
857,39;90,000
857,95;182,00
858,50;90,000
859,05;163,00
859,61;34,000
860,16;104,00
860,71;-17,000
861,27;37,000
861,82;144,00
862,37;13,000
862,93;71,000
863,48;14,000
864,03;21,000
864,59;-97,000
865,14;70,000
865,69;51,000
866,25;103,00
866,80;-557,00
867,35;46,000
867,90;72,000
868,46;76,000
869,01;-1,0000
869,56;35,000
870,12;32,000
870,67;64,000
871,22;125,00
871,77;76,000
872,33;55,000
872,88;133,00
873,43;66,000
873,98;123,00
874,54;2,0000
875,09;-4,0000
875,64;-28,000
876,19;52,000
876,74;-107,00
877,30;46,000
877,85;-38,000
878,40;83,000
878,95;25,000
879,50;72,000
880,06;50,000
880,61;27,000
881,16;-9,0000
881,71;-6,0000
882,26;51,000
882,81;62,000
883,37;11,000
883,92;62,000
884,47;119,00
885,02;41,000
885,57;63,000
886,12;125,00
886,67;80,000
887,22;101,00
887,78;64,000
888,33;65,000
888,88;41,000
889,43;57,000
889,98;1,0000
890,53;-27,000
891,08;77,000
891,63;-2,0000
892,18;44,000
892,73;36,000
893,28;-18,000
893,83;138,00
894,38;-3,0000
894,93;109,00
895,48;16,000
896,03;-7,0000
896,59;75,000
897,14;-6,0000
897,69;18,000
898,24;35,000
898,79;31,000
899,34;99,000
899,89;122,00
900,44;39,000
900,99;130,00
901,53;53,000
902,08;43,000
902,63;134,00
903,18;92,000
903,73;87,000
904,28;35,000
904,83;3,0000
905,38;92,000
905,93;-50,000
906,48;11,000
907,03;99,000
907,58;-2,0000
908,13;-14,000
908,68;54,000
909,23;51,000
909,78;84,000
910,32;34,000
910,87;15,000
911,42;45,000
911,97;35,000
912,52;50,000
913,07;61,000
913,62;21,000
914,17;93,000
914,71;63,000
915,26;68,000
915,81;-3,0000
916,36;51,000
916,91;30,000
917,46;14,000
918,00;60,000
918,55;127,00
919,10;161,00
919,65;78,000
920,20;86,000
920,74;90,000
921,29;-7,0000
921,84;31,000
922,39;3,0000
922,94;29,000
923,48;117,00
924,03;42,000
924,58;122,00
925,13;87,000
925,67;60,000
926,22;-90,000
926,77;35,000
927,32;-11,000
927,86;-17,000
928,41;5,0000
928,96;55,000
929,50;-9,0000
930,05;79,000
930,60;29,000
931,15;48,000
931,69;76,000
932,24;-5,0000
932,79;31,000
933,33;-21,000
933,88;89,000
934,43;21,000
934,97;24,000
935,52;101,00
936,07;112,00
936,61;108,00
937,16;108,00
937,71;-81,000
938,25;170,00
938,80;242,00
939,34;-59,000
939,89;138,00
940,44;86,000
940,98;-1,0000
941,53;70,000
942,07;11,000
942,62;21,000
943,17;9,0000
943,71;99,000
944,26;-75,000
944,80;147,00
945,35;29,000
945,89;76,000
946,44;116,00
946,99;39,000
947,53;35,000
948,08;24,000
948,62;-68,000
949,17;87,000
949,71;4,0000
950,26;3,0000
950,80;79,000
951,35;94,000
951,89;17,000
952,44;65,000
952,98;26,000
953,53;92,000
954,07;51,000
954,62;136,00
955,16;172,00
955,71;69,000
956,25;42,000
956,79;7,0000
957,34;-1,0000
957,88;98,000
958,43;9,0000
958,97;22,000
959,52;-28,000
960,06;5,0000
960,60;75,000
961,15;55,000
961,69;35,000
962,24;144,00
962,78;113,00
963,32;114,00
963,87;-30,000
964,41;22,000
964,96;81,000
965,50;-36,000
966,04;51,000
966,59;24,000
967,13;-18,000
967,67;45,000
968,22;67,000
968,76;52,000
969,30;-10,0000
969,85;-192,00
970,39;37,000
970,93;92,000
971,47;-36,000
972,02;55,000
972,56;57,000
973,10;29,000
973,65;120,00
974,19;80,000
974,73;23,000
975,27;95,000
975,82;57,000
976,36;65,000
976,90;65,000
977,44;79,000
977,99;-29,000
978,53;48,000
979,07;125,00
979,61;59,000
980,16;112,00
980,70;-47,000
981,24;-26,000
981,78;9,0000
982,32;53,000
982,87;-13,000
983,41;40,000
983,95;103,00
984,49;133,00
985,03;29,000
985,57;32,000
986,12;34,000
986,66;69,000
987,20;-22,000
987,74;62,000
988,28;17,000
988,82;71,000
989,36;36,000
989,91;-57,000
990,45;80,000
990,99;-35,000
991,53;22,000
992,07;-31,000
992,61;40,000
993,15;18,000
993,69;20,000
994,23;68,000
994,77;26,000
995,31;11,000
995,86;62,000
996,40;37,000
996,94;10,0000
997,48;92,000
998,02;47,000
998,56;27,000
999,10;-41,000
999,64;60,000
1000,18;15,000
1000,72;80,000
1001,26;80,000
1001,80;32,000
1002,34;50,000
1002,88;52,000
1003,42;116,00
1003,96;2,0000
1004,50;58,000
1005,04;-3,0000
1005,58;-13,000
1006,12;76,000
1006,66;89,000
1007,20;6,0000
1007,73;10,0000
1008,27;55,000
1008,81;156,00
1009,35;133,00
1009,89;19,000
1010,43;55,000
1010,97;87,000
1011,51;79,000
1012,05;49,000
1012,59;94,000
1013,13;98,000
1013,66;104,00
1014,20;130,00
1014,74;53,000
1015,28;32,000
1015,82;20,000
1016,36;80,000
1016,90;-30,000
1017,43;14,000
1017,97;72,000
1018,51;17,000
1019,05;86,000
1019,59;-19,000
1020,13;89,000
1020,66;97,000
1021,20;-108,00
1021,74;-2,0000
1022,28;47,000
1022,81;83,000
1023,35;125,00
1023,89;-5,0000
1024,43;56,000
1024,97;7,0000
1025,50;65,000
1026,04;-14,000
1026,58;11,000
1027,12;7,0000
1027,65;10,0000
1028,19;35,000
1028,73;66,000
1029,26;111,00
1029,80;-25,000
1030,34;-13,000
1030,88;0
1031,41;56,000
1031,95;0
1032,49;-33,000
1033,02;53,000
1033,56;19,000
1034,10;29,000
1034,63;2,0000
1035,17;38,000
1035,71;-14,000
1036,24;51,000
1036,78;-36,000
1037,32;-16,000
1037,85;135,00
1038,39;35,000
1038,92;-12,000
1039,46;19,000
1040,00;137,00
1040,53;50,000
1041,07;133,00
1041,60;105,00
1042,14;151,00
1042,68;3,0000
1043,21;30,000
1043,75;16,000
1044,28;-4,0000
1044,82;55,000
1045,35;17,000
1045,89;-15,000
1046,42;25,000
1046,96;19,000
1047,49;60,000
1048,03;44,000
1048,57;31,000
1049,10;2,0000
1049,64;-225,00
1050,17;57,000
1050,70;52,000
1051,24;43,000
1051,77;142,00
1052,31;-39,000
1052,84;80,000
1053,38;127,00
1053,91;189,00
1054,45;2,0000
1054,98;53,000
1055,52;83,000
1056,05;113,00
1056,59;-12,000
1057,12;54,000
1057,65;16,000
1058,19;-42,000
1058,72;105,00
1059,26;61,000
1059,79;102,00
1060,32;10,0000
1060,86;51,000
1061,39;-1,0000
1061,93;78,000
1062,46;-18,000
1062,99;66,000
1063,53;50,000
1064,06;7,0000
1064,59;60,000
1065,13;25,000
1065,66;-7,0000
1066,19;92,000
1066,73;15,000
1067,26;35,000
1067,79;31,000
1068,33;71,000
1068,86;65,000
1069,39;47,000
1069,92;0
1070,46;10,0000
1070,99;5,0000
1071,52;7,0000
1072,05;3,0000
1072,59;60,000
1073,12;-64,000
1073,65;50,000
1074,18;47,000
1074,72;24,000
1075,25;43,000
1075,78;-68,000
1076,31;55,000
1076,85;83,000
1077,38;134,00
1077,91;100,000
1078,44;89,000
1078,97;57,000
1079,51;119,00
1080,04;69,000
1080,57;29,000
1081,10;-48,000
1081,63;-27,000
1082,16;118,00
1082,70;51,000
1083,23;95,000
1083,76;28,000
1084,29;-47,000
1084,82;-18,000
1085,35;64,000
1085,88;120,00
1086,41;17,000
1086,94;84,000
1087,48;103,00
1088,01;-26,000
1088,54;88,000
1089,07;58,000
1089,60;13,000
1090,13;-62,000
1090,66;-56,000
1091,19;79,000
1091,72;9,0000
1092,25;74,000
1092,78;-50,000
1093,31;-6,0000
1093,84;38,000
1094,37;40,000
1094,90;28,000
1095,43;70,000
1095,96;-67,000
1096,49;32,000
1097,02;-48,000
1097,55;10,0000
1098,08;-24,000
1098,61;105,00
1099,14;75,000
1099,67;113,00
1100,20;93,000
