M- 33 del, 2
Integration time: 5000 ms
Average: 1 scans
Nr of pixels used for smoothing: 0
Data measured with spectrometer serial number: 0604021S1
Wave   ;Sample
[nm]   ;[counts]
173,70;97,000
174,30;77,000
174,90;3,0000
175,50;16,000
176,10;129,00
176,70;105,00
177,30;-17,000
177,90;26,000
178,50;-24,000
179,10;49,000
179,70;26,000
180,30;20,000
180,89;-54,000
181,49;31,000
182,09;-91,000
182,69;11,000
183,29;-57,000
183,89;-34,000
184,49;54,000
185,09;6,0000
185,69;82,000
186,29;45,000
186,89;78,000
187,48;-52,000
188,08;6,0000
188,68;2,0000
189,28;-27,000
189,88;17,000
190,48;-21,000
191,08;7,0000
191,68;76,000
192,28;-35,000
192,87;-27,000
193,47;6,0000
194,07;-9,0000
194,67;47,000
195,27;-89,000
195,87;9,0000
196,47;-21,000
197,06;41,000
197,66;-20,000
198,26;-38,000
198,86;-16,000
199,46;97,000
200,06;98,000
200,66;-16,000
201,25;-58,000
201,85;78,000
202,45;17,000
203,05;-54,000
203,65;-70,000
204,24;4,0000
204,84;0
205,44;-93,000
206,04;-1,0000
206,64;34,000
207,24;43,000
207,83;67,000
208,43;6,0000
209,03;-25,000
209,63;-12,000
210,22;118,00
210,82;-80,000
211,42;-43,000
212,02;-110,00
212,62;12,000
213,21;-73,000
213,81;0
214,41;-51,000
215,01;5,0000
215,60;32,000
216,20;-109,00
216,80;33,000
217,40;-15,000
218,00;128,00
218,59;-72,000
219,19;48,000
219,79;14,000
220,38;-20,000
220,98;-62,000
221,58;9,0000
222,18;85,000
222,77;92,000
223,37;-8,0000
223,97;-115,00
224,57;17,000
225,16;-14,000
225,76;90,000
226,36;27,000
226,95;56,000
227,55;-53,000
228,15;103,00
228,75;7,0000
229,34;-108,00
229,94;36,000
230,54;38,000
231,13;26,000
231,73;39,000
232,33;-47,000
232,92;45,000
233,52;-18,000
234,12;-17,000
234,71;103,00
235,31;23,000
235,91;20,000
236,50;10,0000
237,10;63,000
237,70;-367,00
238,29;2,0000
238,89;92,000
239,49;-35,000
240,08;-26,000
240,68;-2,0000
241,28;64,000
241,87;56,000
242,47;38,000
243,06;32,000
243,66;42,000
244,26;-12,000
244,85;-37,000
245,45;-57,000
246,05;-7,0000
246,64;-18,000
247,24;-23,000
247,83;31,000
248,43;89,000
249,03;-66,000
249,62;-32,000
250,22;-57,000
250,81;42,000
251,41;5,0000
252,01;-47,000
252,60;-130,00
253,20;54,000
253,79;-40,000
254,39;-12,000
254,98;-16,000
255,58;-15,000
256,18;81,000
256,77;20,000
257,37;-29,000
257,96;-59,000
258,56;-1,0000
259,15;-9,0000
259,75;-11,000
260,34;-89,000
260,94;-26,000
261,53;29,000
262,13;9,0000
262,73;72,000
263,32;-13,000
263,92;-73,000
264,51;44,000
265,11;6,0000
265,70;-34,000
266,30;46,000
266,89;25,000
267,49;83,000
268,08;-39,000
268,68;34,000
269,27;-34,000
269,87;25,000
270,46;-61,000
271,06;66,000
271,65;-74,000
272,25;-72,000
272,84;103,00
273,44;6,0000
274,03;62,000
274,62;12,000
275,22;34,000
275,81;-60,000
276,41;23,000
277,00;29,000
277,60;-31,000
278,19;-94,000
278,79;72,000
279,38;-65,000
279,98;-12,000
280,57;18,000
281,16;51,000
281,76;32,000
282,35;-6,0000
282,95;37,000
283,54;50,000
284,14;-64,000
284,73;-30,000
285,32;1,0000
285,92;62,000
286,51;16,000
287,11;-86,000
287,70;-92,000
288,29;-25,000
288,89;14,000
289,48;-29,000
290,08;8,0000
290,67;37,000
291,26;7,0000
291,86;41,000
292,45;-45,000
293,04;-64,000
293,64;77,000
294,23;60,000
294,83;5,0000
295,42;18,000
296,01;-10,0000
296,61;-35,000
297,20;-79,000
297,79;82,000
298,39;5,0000
298,98;74,000
299,57;88,000
300,17;-24,000
300,76;0
301,35;3,0000
301,95;21,000
302,54;4,0000
303,13;63,000
303,73;-6,0000
304,32;57,000
304,91;45,000
305,51;93,000
306,10;18,000
306,69;-19,000
307,28;138,00
307,88;31,000
308,47;-2,0000
309,06;37,000
309,66;142,00
310,25;49,000
310,84;21,000
311,43;-9,0000
312,03;49,000
312,62;43,000
313,21;143,00
313,81;95,000
314,40;198,00
314,99;303,00
315,58;522,00
316,18;568,00
316,77;451,00
317,36;518,00
317,95;408,00
318,54;355,00
319,14;290,00
319,73;94,000
320,32;24,000
320,91;21,000
321,51;32,000
322,10;-23,000
322,69;5,0000
323,28;52,000
323,87;-25,000
324,47;-69,000
325,06;-64,000
325,65;-81,000
326,24;19,000
326,83;-32,000
327,43;60,000
328,02;94,000
328,61;-3,0000
329,20;20,000
329,79;28,000
330,39;-22,000
330,98;36,000
331,57;84,000
332,16;45,000
332,75;51,000
333,34;99,000
333,93;216,00
334,53;237,00
335,12;422,00
335,71;1106,0
336,30;2680,0
336,89;3956,0
337,48;4205,0
338,07;4229,0
338,67;4266,0
339,26;3941,0
339,85;3445,0
340,44;2030,0
341,03;288,00
341,62;49,000
342,21;26,000
342,80;174,00
343,39;97,000
343,99;-10,0000
344,58;-62,000
345,17;23,000
345,76;-4,0000
346,35;49,000
346,94;6,0000
347,53;6,0000
348,12;135,00
348,71;-2,0000
349,30;71,000
349,89;178,00
350,48;190,00
351,07;179,00
351,66;356,00
352,26;568,00
352,85;1023,0
353,44;1538,0
354,03;1491,0
354,62;1609,0
355,21;1629,0
355,80;2131,0
356,39;3208,0
356,98;4821,0
357,57;5670,0
358,16;5859,0
358,75;5679,0
359,34;5551,0
359,93;5228,0
360,52;4338,0
361,11;2188,0
361,70;173,00
362,29;51,000
362,88;-39,000
363,47;58,000
364,06;42,000
364,65;111,00
365,24;80,000
365,83;-15,000
366,42;75,000
367,01;214,00
367,60;134,00
368,19;310,00
368,78;199,00
369,37;160,00
369,95;315,00
370,54;542,00
371,13;470,00
371,72;601,00
372,31;553,00
372,90;556,00
373,49;641,00
374,08;897,00
374,67;1394,0
375,26;1898,0
375,85;1987,0
376,44;2076,0
377,03;1932,0
377,61;2073,0
378,20;1838,0
378,79;1737,0
379,38;1677,0
379,97;2943,0
380,56;3123,0
381,15;3195,0
381,74;3213,0
382,33;3059,0
382,91;2610,0
383,50;2070,0
384,09;674,00
384,68;132,00
385,27;23,000
385,86;121,00
386,45;143,00
387,03;94,000
387,62;86,000
388,21;54,000
388,80;190,00
389,39;220,00
389,98;102,00
390,57;131,00
391,15;118,00
391,74;80,000
392,33;126,00
392,92;188,00
393,51;391,00
394,09;487,00
394,68;290,00
395,27;338,00
395,86;406,00
396,45;469,00
397,03;410,00
397,62;222,00
398,21;434,00
398,80;677,00
399,39;1086,0
399,97;1153,0
400,56;1204,0
401,15;1159,0
401,74;1178,0
402,32;1003,0
402,91;780,00
403,50;533,00
404,09;422,00
404,67;572,00
405,26;1208,0
405,85;1342,0
406,44;1377,0
407,02;1425,0
407,61;1243,0
408,20;1210,0
408,78;1077,0
409,37;600,00
409,96;269,00
410,55;166,00
411,13;149,00
411,72;158,00
412,31;229,00
412,89;171,00
413,48;118,00
414,07;219,00
414,65;111,00
415,24;213,00
415,83;145,00
416,42;121,00
417,00;210,00
417,59;42,000
418,18;136,00
418,76;348,00
419,35;470,00
419,94;371,00
420,52;434,00
421,11;431,00
421,69;409,00
422,28;446,00
422,87;141,00
423,45;304,00
424,04;76,000
424,63;190,00
425,21;228,00
425,80;481,00
426,38;622,00
426,97;715,00
427,56;805,00
428,14;770,00
428,73;681,00
429,31;560,00
429,90;425,00
430,49;208,00
431,07;110,00
431,66;152,00
432,24;242,00
432,83;220,00
433,42;328,00
434,00;476,00
434,59;488,00
435,17;638,00
435,76;450,00
436,34;553,00
436,93;449,00
437,51;345,00
438,10;176,00
438,69;85,000
439,27;25,000
439,86;114,00
440,44;110,00
441,03;20,000
441,61;111,00
442,20;29,000
442,78;101,00
443,37;133,00
443,95;137,00
444,54;59,000
445,12;90,000
445,71;91,000
446,29;28,000
446,88;-25,000
447,46;66,000
448,05;64,000
448,63;241,00
449,22;128,00
449,80;154,00
450,39;117,00
450,97;41,000
451,56;30,000
452,14;27,000
452,72;33,000
453,31;5,0000
453,89;84,000
454,48;55,000
455,06;101,00
455,65;7,0000
456,23;257,00
456,81;259,00
457,40;189,00
457,98;188,00
458,57;131,00
459,15;203,00
459,74;221,00
460,32;90,000
460,90;64,000
461,49;53,000
462,07;104,00
462,66;-38,000
463,24;40,000
463,82;25,000
464,41;153,00
464,99;219,00
465,57;28,000
466,16;214,00
466,74;178,00
467,33;147,00
467,91;164,00
468,49;166,00
469,08;147,00
469,66;58,000
470,24;48,000
470,83;81,000
471,41;41,000
471,99;-64,000
472,58;57,000
473,16;65,000
473,74;62,000
474,33;-54,000
474,91;14,000
475,49;76,000
476,08;-76,000
476,66;32,000
477,24;96,000
477,82;72,000
478,41;139,00
478,99;69,000
479,57;-26,000
480,16;-28,000
480,74;89,000
481,32;55,000
481,90;-50,000
482,49;119,00
483,07;69,000
483,65;100,000
484,23;96,000
484,82;184,00
485,40;2,0000
485,98;9,0000
486,56;-28,000
487,15;14,000
487,73;-32,000
488,31;-58,000
488,89;72,000
489,47;8,0000
490,06;24,000
490,64;-25,000
491,22;35,000
491,80;23,000
492,39;-28,000
492,97;118,00
493,55;138,00
494,13;10,0000
494,71;72,000
495,29;86,000
495,88;21,000
496,46;9,0000
497,04;-41,000
497,62;124,00
498,20;46,000
498,78;71,000
499,37;-17,000
499,95;-64,000
500,53;18,000
501,11;-5,0000
501,69;116,00
502,27;32,000
502,85;39,000
503,44;-25,000
504,02;5,0000
504,60;38,000
505,18;-90,000
505,76;78,000
506,34;115,00
506,92;-42,000
507,50;-2,0000
508,08;60,000
508,67;31,000
509,25;6,0000
509,83;75,000
510,41;14,000
510,99;22,000
511,57;-50,000
512,15;70,000
512,73;0
513,31;-22,000
513,89;56,000
514,47;95,000
515,05;24,000
515,63;9,0000
516,21;-23,000
516,79;36,000
517,38;92,000
517,96;-30,000
518,54;79,000
519,12;63,000
519,70;-87,000
520,28;-61,000
520,86;33,000
521,44;-10,0000
522,02;-48,000
522,60;-19,000
523,18;100,000
523,76;-17,000
524,34;-12,000
524,92;65,000
525,50;-36,000
526,08;-100,000
526,66;4,0000
527,24;49,000
527,82;25,000
528,39;112,00
528,97;41,000
529,55;-66,000
530,13;-18,000
530,71;86,000
531,29;39,000
531,87;24,000
532,45;18,000
533,03;126,00
533,61;27,000
534,19;87,000
534,77;-14,000
535,35;126,00
535,93;-37,000
536,51;75,000
537,08;11,000
537,66;5,0000
538,24;115,00
538,82;22,000
539,40;58,000
539,98;19,000
540,56;30,000
541,14;-29,000
541,72;81,000
542,29;66,000
542,87;3,0000
543,45;88,000
544,03;-19,000
544,61;-2,0000
545,19;-170,00
545,77;4,0000
546,34;-52,000
546,92;114,00
547,50;-2,0000
548,08;73,000
548,66;84,000
549,23;-128,00
549,81;-33,000
550,39;-33,000
550,97;58,000
551,55;-30,000
552,13;53,000
552,70;-38,000
553,28;11,000
553,86;-149,00
554,44;41,000
555,01;52,000
555,59;56,000
556,17;47,000
556,75;11,000
557,33;3,0000
557,90;57,000
558,48;-42,000
559,06;-10,0000
559,64;80,000
560,21;-133,00
560,79;-43,000
561,37;40,000
561,95;-22,000
562,52;-44,000
563,10;-43,000
563,68;-33,000
564,25;46,000
564,83;42,000
565,41;16,000
565,99;-46,000
566,56;-5,0000
567,14;84,000
567,72;111,00
568,29;28,000
568,87;54,000
569,45;25,000
570,02;-5,0000
570,60;9,0000
571,18;12,000
571,75;66,000
572,33;30,000
572,91;-15,000
573,48;71,000
574,06;59,000
574,64;49,000
575,21;-38,000
575,79;12,000
576,37;85,000
576,94;34,000
577,52;22,000
578,09;-2,0000
578,67;22,000
579,25;75,000
579,82;-15,000
580,40;37,000
580,97;13,000
581,55;-57,000
582,13;75,000
582,70;-1,0000
583,28;6,0000
583,85;-13,000
584,43;94,000
585,01;-73,000
585,58;90,000
586,16;-93,000
586,73;3,0000
587,31;1,0000
587,88;8,0000
588,46;-28,000
589,03;81,000
589,61;57,000
590,18;40,000
590,76;87,000
591,34;95,000
591,91;-43,000
592,49;23,000
593,06;68,000
593,64;31,000
594,21;-53,000
594,79;0
595,36;51,000
595,94;48,000
596,51;41,000
597,09;20,000
597,66;39,000
598,24;120,00
598,81;-33,000
599,38;50,000
599,96;78,000
600,53;110,00
601,11;120,00
601,68;18,000
602,26;-37,000
602,83;-22,000
603,41;57,000
603,98;50,000
604,56;-22,000
605,13;24,000
605,70;53,000
606,28;101,00
606,85;84,000
607,43;53,000
608,00;69,000
608,57;11,000
609,15;58,000
609,72;36,000
610,30;80,000
610,87;63,000
611,44;-121,00
612,02;42,000
612,59;-2,0000
613,16;76,000
613,74;-8,0000
614,31;-58,000
614,89;12,000
615,46;20,000
616,03;-62,000
616,61;5,0000
617,18;46,000
617,75;-14,000
618,33;139,00
618,90;-134,00
619,47;11,000
620,05;52,000
620,62;-19,000
621,19;56,000
621,77;-10,0000
622,34;1,0000
622,91;96,000
623,48;61,000
624,06;58,000
624,63;49,000
625,20;28,000
625,78;10,0000
626,35;0
626,92;19,000
627,49;-13,000
628,07;33,000
628,64;-16,000
629,21;45,000
629,78;12,000
630,36;-38,000
630,93;-22,000
631,50;20,000
632,07;59,000
632,65;16,000
633,22;-34,000
633,79;33,000
634,36;36,000
634,93;1,0000
635,51;145,00
636,08;54,000
636,65;13,000
637,22;-2,0000
637,79;82,000
638,37;91,000
638,94;-83,000
639,51;-24,000
640,08;38,000
640,65;45,000
641,22;3,0000
641,80;110,00
642,37;62,000
642,94;-71,000
643,51;69,000
644,08;102,00
644,65;28,000
645,22;52,000
645,80;42,000
646,37;40,000
646,94;64,000
647,51;35,000
648,08;34,000
648,65;45,000
649,22;28,000
649,79;-38,000
650,36;39,000
650,93;18,000
651,51;32,000
652,08;6,0000
652,65;-2,0000
653,22;19,000
653,79;65,000
654,36;112,00
654,93;68,000
655,50;179,00
656,07;42,000
656,64;67,000
657,21;18,000
657,78;67,000
658,35;52,000
658,92;74,000
659,49;21,000
660,06;61,000
660,63;58,000
661,20;103,00
661,77;99,000
662,34;115,00
662,91;133,00
663,48;71,000
664,05;69,000
664,62;89,000
665,19;114,00
665,76;82,000
666,33;111,00
666,90;79,000
667,47;123,00
668,04;38,000
668,61;102,00
669,18;102,00
669,75;162,00
670,32;73,000
670,89;103,00
671,46;140,00
672,03;-30,000
672,60;71,000
673,17;112,00
673,74;-332,00
674,30;49,000
674,87;59,000
675,44;18,000
676,01;90,000
676,58;13,000
677,15;73,000
677,72;102,00
678,29;110,00
678,86;145,00
679,42;123,00
679,99;176,00
680,56;78,000
681,13;42,000
681,70;35,000
682,27;39,000
682,84;-21,000
683,40;52,000
683,97;-21,000
684,54;62,000
685,11;19,000
685,68;99,000
686,25;105,00
686,81;56,000
687,38;-47,000
687,95;-16,000
688,52;76,000
689,09;-65,000
689,65;46,000
690,22;32,000
690,79;41,000
691,36;44,000
691,92;15,000
692,49;39,000
693,06;12,000
693,63;44,000
694,20;-79,000
694,76;125,00
695,33;20,000
695,90;-25,000
696,47;103,00
697,03;-92,000
697,60;50,000
698,17;-32,000
698,73;-52,000
699,30;50,000
699,87;-31,000
700,44;-69,000
701,00;-98,000
701,57;75,000
702,14;87,000
702,70;-45,000
703,27;-10,0000
703,84;-102,00
704,40;33,000
704,97;28,000
705,54;19,000
706,10;69,000
706,67;-64,000
707,24;64,000
707,80;17,000
708,37;45,000
708,94;8,0000
709,50;60,000
710,07;3,0000
710,64;30,000
711,20;-39,000
711,77;-40,000
712,33;69,000
712,90;-58,000
713,47;-22,000
714,03;-37,000
714,60;-28,000
715,16;85,000
715,73;-12,000
716,30;69,000
716,86;-46,000
717,43;36,000
717,99;58,000
718,56;33,000
719,12;16,000
719,69;73,000
720,26;25,000
720,82;65,000
721,39;73,000
721,95;-61,000
722,52;-15,000
723,08;9,0000
723,65;61,000
724,21;-17,000
724,78;36,000
725,34;18,000
725,91;78,000
726,47;49,000
727,04;-86,000
727,60;75,000
728,17;66,000
728,73;14,000
729,30;37,000
729,86;59,000
730,43;87,000
730,99;1,0000
731,56;-22,000
732,12;52,000
732,68;27,000
733,25;22,000
733,81;88,000
734,38;73,000
734,94;-34,000
735,51;15,000
736,07;141,00
736,63;109,00
737,20;103,00
737,76;88,000
738,33;93,000
738,89;70,000
739,46;101,00
740,02;30,000
740,58;-53,000
741,15;-49,000
741,71;69,000
742,27;11,000
742,84;-105,00
743,40;43,000
743,97;-34,000
744,53;84,000
745,09;1,0000
745,66;70,000
746,22;122,00
746,78;105,00
747,35;40,000
747,91;43,000
748,47;182,00
749,04;80,000
749,60;69,000
750,16;31,000
750,72;144,00
751,29;-41,000
751,85;68,000
752,41;58,000
752,98;99,000
753,54;14,000
754,10;-88,000
754,66;9,0000
755,23;-20,000
755,79;18,000
756,35;15,000
756,91;34,000
757,48;79,000
758,04;34,000
758,60;58,000
759,16;55,000
759,73;83,000
760,29;12,000
760,85;55,000
761,41;10,0000
761,98;154,00
762,54;14,000
763,10;4,0000
763,66;-84,000
764,22;25,000
764,79;51,000
765,35;22,000
765,91;19,000
766,47;154,00
767,03;-14,000
767,59;-48,000
768,16;-58,000
768,72;17,000
769,28;-21,000
769,84;68,000
770,40;-51,000
770,96;24,000
771,52;133,00
772,09;18,000
772,65;107,00
773,21;100,000
773,77;51,000
774,33;38,000
774,89;50,000
775,45;140,00
776,01;31,000
776,57;112,00
777,13;79,000
777,70;90,000
778,26;99,000
778,82;-7,0000
779,38;46,000
779,94;-53,000
780,50;12,000
781,06;13,000
781,62;93,000
782,18;-126,00
782,74;59,000
783,30;86,000
783,86;49,000
784,42;10,0000
784,98;-45,000
785,54;-13,000
786,10;-88,000
786,66;93,000
787,22;-15,000
787,78;51,000
788,34;-33,000
788,90;42,000
789,46;16,000
790,02;17,000
790,58;21,000
791,14;100,000
791,70;-61,000
792,26;58,000
792,82;-89,000
793,38;445,00
793,94;7,0000
794,50;-7,0000
795,06;-79,000
795,62;-6,0000
796,17;19,000
796,73;26,000
797,29;55,000
797,85;38,000
798,41;26,000
798,97;44,000
799,53;13,000
800,09;68,000
800,65;-188,00
801,21;25,000
801,76;62,000
802,32;6,0000
802,88;-36,000
803,44;-9,0000
804,00;119,00
804,56;-22,000
805,12;46,000
805,67;-21,000
806,23;-36,000
806,79;36,000
807,35;2,0000
807,91;81,000
808,46;-11,000
809,02;-21,000
809,58;70,000
810,14;-44,000
810,70;-31,000
811,26;-2,0000
811,81;-4,0000
812,37;20,000
812,93;23,000
813,49;36,000
814,04;-25,000
814,60;-44,000
815,16;33,000
815,72;-32,000
816,27;20,000
816,83;23,000
817,39;-5,0000
817,95;-25,000
818,50;-9,0000
819,06;7,0000
819,62;-94,000
820,18;-38,000
820,73;43,000
821,29;63,000
821,85;103,00
822,40;31,000
822,96;-2,0000
823,52;-53,000
824,07;-52,000
824,63;-18,000
825,19;-18,000
825,74;48,000
826,30;44,000
826,86;73,000
827,41;31,000
827,97;12,000
828,53;10,0000
829,08;50,000
829,64;18,000
830,20;48,000
830,75;-7,0000
831,31;-11,000
831,86;39,000
832,42;-43,000
832,98;139,00
833,53;3,0000
834,09;-46,000
834,64;92,000
835,20;38,000
835,76;-58,000
836,31;101,00
836,87;109,00
837,42;-58,000
837,98;-22,000
838,53;-78,000
839,09;-150,00
839,64;60,000
840,20;44,000
840,75;29,000
841,31;-101,00
841,87;80,000
842,42;101,00
842,98;9,0000
843,53;48,000
844,09;0
844,64;84,000
845,20;-72,000
845,75;54,000
846,31;9,0000
846,86;4,0000
847,41;3,0000
847,97;51,000
848,52;131,00
849,08;81,000
849,63;37,000
850,19;32,000
850,74;9,0000
851,30;-63,000
851,85;94,000
852,41;0
852,96;48,000
853,51;-74,000
854,07;10,0000
854,62;-34,000
855,18;-62,000
855,73;-9,0000
856,28;38,000
856,84;-130,00
857,39;39,000
857,95;-22,000
858,50;1,0000
859,05;14,000
859,61;0
860,16;-3,0000
860,71;34,000
861,27;34,000
861,82;45,000
862,37;-8,0000
862,93;19,000
863,48;-2,0000
864,03;-32,000
864,59;-138,00
865,14;-59,000
865,69;-13,000
866,25;-8,0000
866,80;-23,000
867,35;50,000
867,90;13,000
868,46;-51,000
869,01;5,0000
869,56;-1,0000
870,12;-28,000
870,67;8,0000
871,22;42,000
871,77;44,000
872,33;57,000
872,88;71,000
873,43;-29,000
873,98;-26,000
874,54;38,000
875,09;149,00
875,64;27,000
876,19;37,000
876,74;18,000
877,30;5,0000
877,85;36,000
878,40;57,000
878,95;-23,000
879,50;13,000
880,06;-107,00
880,61;-59,000
881,16;40,000
881,71;79,000
882,26;9,0000
882,81;49,000
883,37;38,000
883,92;32,000
884,47;-9,0000
885,02;-24,000
885,57;-44,000
886,12;125,00
886,67;-29,000
887,22;48,000
887,78;33,000
888,33;141,00
888,88;5,0000
889,43;-99,000
889,98;18,000
890,53;48,000
891,08;-4,0000
891,63;20,000
892,18;28,000
892,73;-16,000
893,28;75,000
893,83;91,000
894,38;-8,0000
894,93;-57,000
895,48;62,000
896,03;107,00
896,59;74,000
897,14;-23,000
897,69;0
898,24;-100,000
898,79;-42,000
899,34;70,000
899,89;43,000
900,44;5,0000
900,99;-35,000
901,53;89,000
902,08;141,00
902,63;-3,0000
903,18;76,000
903,73;-16,000
904,28;-28,000
904,83;9,0000
905,38;69,000
905,93;28,000
906,48;-19,000
907,03;-65,000
907,58;-45,000
908,13;28,000
908,68;13,000
909,23;24,000
909,78;11,000
910,32;95,000
910,87;9,0000
911,42;2,0000
911,97;-33,000
912,52;43,000
913,07;43,000
913,62;-11,000
914,17;-41,000
914,71;68,000
915,26;8,0000
915,81;79,000
916,36;9,0000
916,91;-13,000
917,46;35,000
918,00;36,000
918,55;65,000
919,10;100,000
919,65;114,00
920,20;15,000
920,74;49,000
921,29;-1,0000
921,84;13,000
922,39;27,000
922,94;64,000
923,48;10,0000
924,03;-54,000
924,58;46,000
925,13;-77,000
925,67;49,000
926,22;18,000
926,77;-25,000
927,32;-39,000
927,86;53,000
928,41;-21,000
928,96;46,000
929,50;47,000
930,05;123,00
930,60;82,000
931,15;8,0000
931,69;-2,0000
932,24;63,000
932,79;-42,000
933,33;27,000
933,88;106,00
934,43;-58,000
934,97;-33,000
935,52;98,000
936,07;-158,00
936,61;-44,000
937,16;-22,000
937,71;-2,0000
938,25;-25,000
938,80;-11,000
939,34;-8,0000
939,89;30,000
940,44;4,0000
940,98;70,000
941,53;-23,000
942,07;-73,000
942,62;-106,00
943,17;-26,000
943,71;-86,000
944,26;1,0000
944,80;49,000
945,35;-87,000
945,89;-120,00
946,44;-25,000
946,99;84,000
947,53;104,00
948,08;51,000
948,62;-54,000
949,17;23,000
949,71;74,000
950,26;-66,000
950,80;-67,000
951,35;7,0000
951,89;20,000
952,44;90,000
952,98;-25,000
953,53;-23,000
954,07;43,000
954,62;25,000
955,16;0
955,71;16,000
956,25;8,0000
956,79;-78,000
957,34;13,000
957,88;-58,000
958,43;46,000
958,97;-23,000
959,52;-61,000
960,06;79,000
960,60;-27,000
961,15;-9,0000
961,69;-2,0000
962,24;-281,00
962,78;-18,000
963,32;-33,000
963,87;21,000
964,41;46,000
964,96;-90,000
965,50;4,0000
966,04;-26,000
966,59;-130,00
967,13;-8,0000
967,67;32,000
968,22;-54,000
968,76;54,000
969,30;69,000
969,85;52,000
970,39;69,000
970,93;-71,000
971,47;-67,000
972,02;1,0000
972,56;-21,000
973,10;-60,000
973,65;-4,0000
974,19;-63,000
974,73;-9,0000
975,27;7,0000
975,82;51,000
976,36;-58,000
976,90;13,000
977,44;79,000
977,99;11,000
978,53;-23,000
979,07;64,000
979,61;3,0000
980,16;-83,000
980,70;-106,00
981,24;122,00
981,78;-23,000
982,32;19,000
982,87;90,000
983,41;41,000
983,95;-2,0000
984,49;-49,000
985,03;71,000
985,57;-103,00
986,12;-55,000
986,66;128,00
987,20;21,000
987,74;27,000
988,28;-58,000
988,82;-27,000
989,36;-11,000
989,91;10,0000
990,45;46,000
990,99;-68,000
991,53;8,0000
992,07;34,000
992,61;-12,000
993,15;-35,000
993,69;-8,0000
994,23;-114,00
994,77;34,000
995,31;-65,000
995,86;-100,000
996,40;62,000
996,94;54,000
997,48;-73,000
998,02;-17,000
998,56;-20,000
999,10;-3,0000
999,64;-38,000
1000,18;8,0000
1000,72;6,0000
1001,26;-26,000
1001,80;94,000
1002,34;40,000
1002,88;-15,000
1003,42;-46,000
1003,96;8,0000
1004,50;-28,000
1005,04;-4,0000
1005,58;-41,000
1006,12;9,0000
1006,66;46,000
1007,20;95,000
1007,73;60,000
1008,27;-34,000
1008,81;38,000
1009,35;40,000
1009,89;-17,000
1010,43;35,000
1010,97;-11,000
1011,51;-84,000
1012,05;45,000
1012,59;32,000
1013,13;34,000
1013,66;-2,0000
1014,20;6,0000
1014,74;78,000
1015,28;-12,000
1015,82;17,000
1016,36;15,000
1016,90;-82,000
1017,43;-17,000
1017,97;72,000
1018,51;-28,000
1019,05;29,000
1019,59;126,00
1020,13;77,000
1020,66;-46,000
1021,20;-50,000
1021,74;63,000
1022,28;60,000
1022,81;50,000
1023,35;-33,000
1023,89;8,0000
1024,43;99,000
1024,97;6,0000
1025,50;-108,00
1026,04;-14,000
1026,58;7,0000
1027,12;-95,000
1027,65;35,000
1028,19;74,000
1028,73;27,000
1029,26;-44,000
1029,80;2,0000
1030,34;107,00
1030,88;-14,000
1031,41;36,000
1031,95;68,000
1032,49;12,000
1033,02;-4,0000
1033,56;-79,000
1034,10;15,000
1034,63;52,000
1035,17;87,000
1035,71;-117,00
1036,24;24,000
1036,78;6,0000
1037,32;10,0000
1037,85;12,000
1038,39;105,00
1038,92;64,000
1039,46;-48,000
1040,00;9,0000
1040,53;180,00
1041,07;5,0000
1041,60;-70,000
1042,14;62,000
1042,68;23,000
1043,21;-15,000
1043,75;-37,000
1044,28;-41,000
1044,82;-22,000
1045,35;-46,000
1045,89;19,000
1046,42;-3,0000
1046,96;-121,00
1047,49;-13,000
1048,03;7,0000
1048,57;-61,000
1049,10;-49,000
1049,64;-266,00
1050,17;37,000
1050,70;27,000
1051,24;52,000
1051,77;-27,000
1052,31;-20,000
1052,84;-19,000
1053,38;10,0000
1053,91;64,000
1054,45;45,000
1054,98;-34,000
1055,52;27,000
1056,05;62,000
1056,59;3,0000
1057,12;-54,000
1057,65;-89,000
1058,19;14,000
1058,72;-29,000
1059,26;74,000
1059,79;59,000
1060,32;-8,0000
1060,86;-36,000
1061,39;34,000
1061,93;53,000
1062,46;1,0000
1062,99;-68,000
1063,53;50,000
1064,06;-78,000
1064,59;100,000
1065,13;63,000
1065,66;-44,000
1066,19;-36,000
1066,73;-11,000
1067,26;8,0000
1067,79;47,000
1068,33;-54,000
1068,86;-11,000
1069,39;-82,000
1069,92;-6,0000
1070,46;47,000
1070,99;-128,00
1071,52;9,0000
1072,05;90,000
1072,59;4,0000
1073,12;28,000
1073,65;74,000
1074,18;-51,000
1074,72;8,0000
1075,25;30,000
1075,78;-13,000
1076,31;-52,000
1076,85;30,000
1077,38;-75,000
1077,91;3,0000
1078,44;8,0000
1078,97;-25,000
1079,51;14,000
1080,04;-58,000
1080,57;-9,0000
1081,10;113,00
1081,63;-1,0000
1082,16;13,000
1082,70;-60,000
1083,23;-58,000
1083,76;-40,000
1084,29;35,000
1084,82;51,000
1085,35;-97,000
1085,88;-93,000
1086,41;26,000
1086,94;-102,00
1087,48;56,000
1088,01;-32,000
1088,54;14,000
1089,07;-36,000
1089,60;-97,000
1090,13;-52,000
1090,66;25,000
1091,19;0
1091,72;1,0000
1092,25;25,000
1092,78;98,000
1093,31;-26,000
1093,84;62,000
1094,37;-17,000
1094,90;21,000
1095,43;1,0000
1095,96;46,000
1096,49;-39,000
1097,02;23,000
1097,55;32,000
1098,08;15,000
1098,61;7,0000
1099,14;1,0000
1099,67;8,0000
1100,20;11,000
