M- 40 del, 3, sur
Integration time: 5000 ms
Average: 1 scans
Nr of pixels used for smoothing: 0
Data measured with spectrometer serial number: 0604021S1
Wave   ;Sample
[nm]   ;[counts]
173,70;-286,00
174,30;-55,000
174,90;10,0000
175,50;73,000
176,10;-19,000
176,70;33,000
177,30;-25,000
177,90;-73,000
178,50;1,0000
179,10;-93,000
179,70;-13,000
180,30;-54,000
180,89;-27,000
181,49;-43,000
182,09;9,0000
182,69;39,000
183,29;39,000
183,89;60,000
184,49;-65,000
185,09;125,00
185,69;76,000
186,29;-6,0000
186,89;121,00
187,48;17,000
188,08;-16,000
188,68;-74,000
189,28;-72,000
189,88;39,000
190,48;37,000
191,08;-79,000
191,68;-48,000
192,28;-14,000
192,87;-33,000
193,47;38,000
194,07;52,000
194,67;-15,000
195,27;132,00
195,87;27,000
196,47;6,0000
197,06;-78,000
197,66;5,0000
198,26;32,000
198,86;-8,0000
199,46;21,000
200,06;-67,000
200,66;18,000
201,25;44,000
201,85;-5,0000
202,45;19,000
203,05;7,0000
203,65;-95,000
204,24;127,00
204,84;-148,00
205,44;36,000
206,04;-65,000
206,64;32,000
207,24;87,000
207,83;22,000
208,43;-10,0000
209,03;-28,000
209,63;15,000
210,22;11,000
210,82;47,000
211,42;-43,000
212,02;67,000
212,62;11,000
213,21;-140,00
213,81;4,0000
214,41;2,0000
215,01;-24,000
215,60;-8,0000
216,20;174,00
216,80;28,000
217,40;-40,000
218,00;42,000
218,59;-72,000
219,19;-30,000
219,79;-48,000
220,38;90,000
220,98;12,000
221,58;72,000
222,18;57,000
222,77;-16,000
223,37;-19,000
223,97;-38,000
224,57;7,0000
225,16;57,000
225,76;-32,000
226,36;-88,000
226,95;-50,000
227,55;-13,000
228,15;26,000
228,75;-53,000
229,34;-19,000
229,94;-84,000
230,54;-27,000
231,13;-44,000
231,73;62,000
232,33;-26,000
232,92;6,0000
233,52;84,000
234,12;109,00
234,71;57,000
235,31;19,000
235,91;-42,000
236,50;-7,0000
237,10;24,000
237,70;30,000
238,29;-78,000
238,89;-58,000
239,49;25,000
240,08;13,000
240,68;-40,000
241,28;-10,0000
241,87;-51,000
242,47;2,0000
243,06;-12,000
243,66;-31,000
244,26;100,000
244,85;43,000
245,45;15,000
246,05;62,000
246,64;73,000
247,24;19,000
247,83;-15,000
248,43;-38,000
249,03;-70,000
249,62;10,0000
250,22;-47,000
250,81;-93,000
251,41;-16,000
252,01;55,000
252,60;9,0000
253,20;-63,000
253,79;10,0000
254,39;-89,000
254,98;23,000
255,58;-42,000
256,18;-24,000
256,77;93,000
257,37;-2,0000
257,96;-85,000
258,56;32,000
259,15;-8,0000
259,75;-26,000
260,34;75,000
260,94;-3,0000
261,53;-1,0000
262,13;-40,000
262,73;13,000
263,32;39,000
263,92;32,000
264,51;146,00
265,11;14,000
265,70;-14,000
266,30;8,0000
266,89;115,00
267,49;-93,000
268,08;17,000
268,68;96,000
269,27;11,000
269,87;41,000
270,46;93,000
271,06;63,000
271,65;49,000
272,25;58,000
272,84;50,000
273,44;28,000
274,03;47,000
274,62;4,0000
275,22;-23,000
275,81;-40,000
276,41;27,000
277,00;16,000
277,60;75,000
278,19;85,000
278,79;48,000
279,38;52,000
279,98;-13,000
280,57;70,000
281,16;-71,000
281,76;-28,000
282,35;23,000
282,95;71,000
283,54;49,000
284,14;-24,000
284,73;6,0000
285,32;-48,000
285,92;-5,0000
286,51;-76,000
287,11;18,000
287,70;53,000
288,29;1,0000
288,89;116,00
289,48;90,000
290,08;15,000
290,67;-135,00
291,26;36,000
291,86;70,000
292,45;39,000
293,04;-37,000
293,64;83,000
294,23;-25,000
294,83;22,000
295,42;-23,000
296,01;66,000
296,61;-131,00
297,20;26,000
297,79;14,000
298,39;62,000
298,98;42,000
299,57;-22,000
300,17;-82,000
300,76;54,000
301,35;-16,000
301,95;132,00
302,54;-44,000
303,13;32,000
303,73;-7,0000
304,32;37,000
304,91;107,00
305,51;55,000
306,10;-13,000
306,69;78,000
307,28;163,00
307,88;29,000
308,47;59,000
309,06;48,000
309,66;-32,000
310,25;68,000
310,84;16,000
311,43;58,000
312,03;107,00
312,62;92,000
313,21;170,00
313,81;180,00
314,40;140,00
314,99;258,00
315,58;322,00
316,18;361,00
316,77;225,00
317,36;246,00
317,95;242,00
318,54;292,00
319,14;172,00
319,73;115,00
320,32;92,000
320,91;69,000
321,51;37,000
322,10;120,00
322,69;57,000
323,28;94,000
323,87;109,00
324,47;89,000
325,06;20,000
325,65;182,00
326,24;170,00
326,83;219,00
327,43;284,00
328,02;172,00
328,61;213,00
329,20;170,00
329,79;237,00
330,39;185,00
330,98;251,00
331,57;262,00
332,16;236,00
332,75;260,00
333,34;349,00
333,93;223,00
334,53;328,00
335,12;566,00
335,71;924,00
336,30;1313,0
336,89;1865,0
337,48;1955,0
338,07;1747,0
338,67;1753,0
339,26;1597,0
339,85;1270,0
340,44;867,00
341,03;286,00
341,62;309,00
342,21;215,00
342,80;224,00
343,39;172,00
343,99;294,00
344,58;257,00
345,17;216,00
345,76;173,00
346,35;280,00
346,94;313,00
347,53;215,00
348,12;350,00
348,71;436,00
349,30;399,00
349,89;378,00
350,48;535,00
351,07;565,00
351,66;598,00
352,26;712,00
352,85;990,00
353,44;1209,0
354,03;1312,0
354,62;1315,0
355,21;1481,0
355,80;1542,0
356,39;2127,0
356,98;2607,0
357,57;2756,0
358,16;2721,0
358,75;2722,0
359,34;2533,0
359,93;2368,0
360,52;1836,0
361,11;1232,0
361,70;596,00
362,29;389,00
362,88;464,00
363,47;492,00
364,06;423,00
364,65;510,00
365,24;426,00
365,83;603,00
366,42;454,00
367,01;643,00
367,60;598,00
368,19;565,00
368,78;504,00
369,37;757,00
369,95;762,00
370,54;940,00
371,13;885,00
371,72;872,00
372,31;870,00
372,90;893,00
373,49;1000,00
374,08;1067,0
374,67;1389,0
375,26;1614,0
375,85;1545,0
376,44;1567,0
377,03;1505,0
377,61;1516,0
378,20;1408,0
378,79;1577,0
379,38;1530,0
379,97;2096,0
380,56;2060,0
381,15;2106,0
381,74;2118,0
382,33;2136,0
382,91;2048,0
383,50;1805,0
384,09;1642,0
384,68;1682,0
385,27;1905,0
385,86;2091,0
386,45;2197,0
387,03;2211,0
387,62;2256,0
388,21;2220,0
388,80;2107,0
389,39;1908,0
389,98;1648,0
390,57;1413,0
391,15;1312,0
391,74;1282,0
392,33;1038,0
392,92;949,00
393,51;1021,0
394,09;1020,0
394,68;1015,0
395,27;1137,0
395,86;887,00
396,45;1040,0
397,03;1046,0
397,62;935,00
398,21;1028,0
398,80;1228,0
399,39;1345,0
399,97;1446,0
400,56;1364,0
401,15;1305,0
401,74;1435,0
402,32;1266,0
402,91;1247,0
403,50;1119,0
404,09;1151,0
404,67;1368,0
405,26;1402,0
405,85;1581,0
406,44;1604,0
407,02;1761,0
407,61;1823,0
408,20;1616,0
408,78;1665,0
409,37;1472,0
409,96;1449,0
410,55;1540,0
411,13;1491,0
411,72;1449,0
412,31;1482,0
412,89;1550,0
413,48;1522,0
414,07;1603,0
414,65;1583,0
415,24;1740,0
415,83;1828,0
416,42;1595,0
417,00;1691,0
417,59;1696,0
418,18;1689,0
418,76;1700,0
419,35;1819,0
419,94;1767,0
420,52;1814,0
421,11;1706,0
421,69;1640,0
422,28;1683,0
422,87;1567,0
423,45;1665,0
424,04;1689,0
424,63;1591,0
425,21;1721,0
425,80;1590,0
426,38;1655,0
426,97;1765,0
427,56;1594,0
428,14;1492,0
428,73;1473,0
429,31;1338,0
429,90;1381,0
430,49;1142,0
431,07;1111,0
431,66;1101,0
432,24;1014,0
432,83;1209,0
433,42;1237,0
434,00;1347,0
434,59;1582,0
435,17;1531,0
435,76;1841,0
436,34;1803,0
436,93;1738,0
437,51;1670,0
438,10;1556,0
438,69;1272,0
439,27;1090,0
439,86;1055,0
440,44;1110,0
441,03;1125,0
441,61;1094,0
442,20;1125,0
442,78;1141,0
443,37;1100,0
443,95;1233,0
444,54;1224,0
445,12;1183,0
445,71;989,00
446,29;1145,0
446,88;1104,0
447,46;954,00
448,05;994,00
448,63;984,00
449,22;869,00
449,80;908,00
450,39;940,00
450,97;795,00
451,56;730,00
452,14;838,00
452,72;825,00
453,31;888,00
453,89;807,00
454,48;873,00
455,06;793,00
455,65;797,00
456,23;767,00
456,81;820,00
457,40;818,00
457,98;746,00
458,57;812,00
459,15;742,00
459,74;753,00
460,32;910,00
460,90;933,00
461,49;1011,0
462,07;1052,0
462,66;1282,0
463,24;1338,0
463,82;1401,0
464,41;1565,0
464,99;1451,0
465,57;1303,0
466,16;1373,0
466,74;1302,0
467,33;1093,0
467,91;1127,0
468,49;908,00
469,08;982,00
469,66;898,00
470,24;880,00
470,83;887,00
471,41;897,00
471,99;903,00
472,58;788,00
473,16;895,00
473,74;760,00
474,33;780,00
474,91;696,00
475,49;799,00
476,08;724,00
476,66;775,00
477,24;802,00
477,82;862,00
478,41;917,00
478,99;909,00
479,57;1042,0
480,16;1061,0
480,74;1126,0
481,32;1199,0
481,90;1324,0
482,49;1324,0
483,07;1361,0
483,65;1547,0
484,23;1596,0
484,82;1694,0
485,40;1859,0
485,98;1998,0
486,56;2029,0
487,15;2218,0
487,73;2170,0
488,31;2092,0
488,89;1919,0
489,47;1959,0
490,06;1873,0
490,64;1710,0
491,22;1718,0
491,80;1368,0
492,39;1328,0
492,97;1172,0
493,55;1108,0
494,13;1187,0
494,71;1060,0
495,29;912,00
495,88;978,00
496,46;873,00
497,04;895,00
497,62;785,00
498,20;753,00
498,78;751,00
499,37;917,00
499,95;1395,0
500,53;1550,0
501,11;1635,0
501,69;1505,0
502,27;1459,0
502,85;1419,0
503,44;1390,0
504,02;1079,0
504,60;949,00
505,18;793,00
505,76;611,00
506,34;733,00
506,92;664,00
507,50;600,00
508,08;637,00
508,67;512,00
509,25;602,00
509,83;520,00
510,41;543,00
510,99;582,00
511,57;371,00
512,15;335,00
512,73;474,00
513,31;520,00
513,89;382,00
514,47;465,00
515,05;519,00
515,63;405,00
516,21;607,00
516,79;462,00
517,38;545,00
517,96;533,00
518,54;488,00
519,12;596,00
519,70;448,00
520,28;532,00
520,86;503,00
521,44;494,00
522,02;577,00
522,60;484,00
523,18;522,00
523,76;484,00
524,34;361,00
524,92;484,00
525,50;456,00
526,08;383,00
526,66;446,00
527,24;393,00
527,82;448,00
528,39;412,00
528,97;337,00
529,55;369,00
530,13;428,00
530,71;432,00
531,29;460,00
531,87;551,00
532,45;498,00
533,03;505,00
533,61;495,00
534,19;511,00
534,77;495,00
535,35;506,00
535,93;584,00
536,51;407,00
537,08;396,00
537,66;444,00
538,24;548,00
538,82;466,00
539,40;529,00
539,98;529,00
540,56;398,00
541,14;560,00
541,72;411,00
542,29;485,00
542,87;412,00
543,45;533,00
544,03;366,00
544,61;473,00
545,19;435,00
545,77;410,00
546,34;488,00
546,92;537,00
547,50;560,00
548,08;496,00
548,66;678,00
549,23;519,00
549,81;503,00
550,39;378,00
550,97;546,00
551,55;490,00
552,13;527,00
552,70;409,00
553,28;524,00
553,86;513,00
554,44;455,00
555,01;521,00
555,59;461,00
556,17;506,00
556,75;627,00
557,33;568,00
557,90;545,00
558,48;502,00
559,06;438,00
559,64;549,00
560,21;554,00
560,79;477,00
561,37;552,00
561,95;391,00
562,52;443,00
563,10;481,00
563,68;411,00
564,25;507,00
564,83;437,00
565,41;463,00
565,99;586,00
566,56;622,00
567,14;680,00
567,72;796,00
568,29;919,00
568,87;848,00
569,45;914,00
570,02;847,00
570,60;754,00
571,18;721,00
571,75;638,00
572,33;473,00
572,91;494,00
573,48;459,00
574,06;486,00
574,64;393,00
575,21;412,00
575,79;332,00
576,37;462,00
576,94;386,00
577,52;349,00
578,09;463,00
578,67;430,00
579,25;437,00
579,82;471,00
580,40;456,00
580,97;448,00
581,55;433,00
582,13;462,00
582,70;322,00
583,28;362,00
583,85;378,00
584,43;423,00
585,01;429,00
585,58;456,00
586,16;382,00
586,73;356,00
587,31;337,00
587,88;447,00
588,46;401,00
589,03;569,00
589,61;523,00
590,18;475,00
590,76;521,00
591,34;511,00
591,91;476,00
592,49;676,00
593,06;554,00
593,64;402,00
594,21;568,00
594,79;464,00
595,36;585,00
595,94;561,00
596,51;498,00
597,09;375,00
597,66;510,00
598,24;315,00
598,81;434,00
599,38;438,00
599,96;424,00
600,53;336,00
601,11;419,00
601,68;405,00
602,26;392,00
602,83;339,00
603,41;367,00
603,98;269,00
604,56;259,00
605,13;411,00
605,70;372,00
606,28;309,00
606,85;412,00
607,43;418,00
608,00;343,00
608,57;321,00
609,15;289,00
609,72;468,00
610,30;472,00
610,87;383,00
611,44;290,00
612,02;313,00
612,59;253,00
613,16;377,00
613,74;375,00
614,31;283,00
614,89;359,00
615,46;357,00
616,03;462,00
616,61;527,00
617,18;391,00
617,75;448,00
618,33;351,00
618,90;582,00
619,47;520,00
620,05;307,00
620,62;484,00
621,19;413,00
621,77;362,00
622,34;374,00
622,91;406,00
623,48;280,00
624,06;340,00
624,63;292,00
625,20;323,00
625,78;396,00
626,35;359,00
626,92;350,00
627,49;290,00
628,07;330,00
628,64;373,00
629,21;341,00
629,78;279,00
630,36;292,00
630,93;355,00
631,50;345,00
632,07;338,00
632,65;380,00
633,22;231,00
633,79;298,00
634,36;294,00
634,93;314,00
635,51;358,00
636,08;245,00
636,65;107,00
637,22;246,00
637,79;370,00
638,37;315,00
638,94;247,00
639,51;267,00
640,08;253,00
640,65;145,00
641,22;183,00
641,80;392,00
642,37;390,00
642,94;387,00
643,51;410,00
644,08;320,00
644,65;326,00
645,22;314,00
645,80;463,00
646,37;469,00
646,94;450,00
647,51;407,00
648,08;522,00
648,65;565,00
649,22;566,00
649,79;652,00
650,36;780,00
650,93;686,00
651,51;827,00
652,08;796,00
652,65;794,00
653,22;758,00
653,79;947,00
654,36;1127,0
654,93;1461,0
655,50;1992,0
656,07;2732,0
656,64;3427,0
657,21;3896,0
657,78;4024,0
658,35;4083,0
658,92;3841,0
659,49;3572,0
660,06;3187,0
660,63;2504,0
661,20;2190,0
661,77;2093,0
662,34;1870,0
662,91;1655,0
663,48;1484,0
664,05;1204,0
664,62;999,00
665,19;908,00
665,76;800,00
666,33;709,00
666,90;710,00
667,47;610,00
668,04;600,00
668,61;487,00
669,18;397,00
669,75;563,00
670,32;381,00
670,89;389,00
671,46;499,00
672,03;421,00
672,60;385,00
673,17;367,00
673,74;333,00
674,30;251,00
674,87;513,00
675,44;272,00
676,01;362,00
676,58;355,00
677,15;236,00
677,72;283,00
678,29;257,00
678,86;224,00
679,42;327,00
679,99;246,00
680,56;325,00
681,13;259,00
681,70;282,00
682,27;74,000
682,84;183,00
683,40;364,00
683,97;153,00
684,54;121,00
685,11;182,00
685,68;213,00
686,25;177,00
686,81;309,00
687,38;214,00
687,95;246,00
688,52;114,00
689,09;153,00
689,65;144,00
690,22;276,00
690,79;220,00
691,36;145,00
691,92;192,00
692,49;250,00
693,06;181,00
693,63;241,00
694,20;240,00
694,76;278,00
695,33;235,00
695,90;217,00
696,47;280,00
697,03;261,00
697,60;296,00
698,17;320,00
698,73;193,00
699,30;237,00
699,87;365,00
700,44;227,00
701,00;187,00
701,57;158,00
702,14;275,00
702,70;250,00
703,27;153,00
703,84;162,00
704,40;323,00
704,97;199,00
705,54;178,00
706,10;274,00
706,67;190,00
707,24;219,00
707,80;106,00
708,37;279,00
708,94;188,00
709,50;121,00
710,07;212,00
710,64;195,00
711,20;202,00
711,77;226,00
712,33;228,00
712,90;225,00
713,47;233,00
714,03;238,00
714,60;146,00
715,16;250,00
715,73;155,00
716,30;258,00
716,86;292,00
717,43;292,00
717,99;212,00
718,56;257,00
719,12;150,00
719,69;194,00
720,26;212,00
720,82;244,00
721,39;75,000
721,95;165,00
722,52;235,00
723,08;146,00
723,65;77,000
724,21;193,00
724,78;143,00
725,34;193,00
725,91;170,00
726,47;284,00
727,04;160,00
727,60;147,00
728,17;96,000
728,73;125,00
729,30;172,00
729,86;66,000
730,43;8,0000
730,99;178,00
731,56;142,00
732,12;90,000
732,68;127,00
733,25;48,000
733,81;136,00
734,38;115,00
734,94;183,00
735,51;144,00
736,07;66,000
736,63;104,00
737,20;128,00
737,76;222,00
738,33;75,000
738,89;122,00
739,46;79,000
740,02;179,00
740,58;95,000
741,15;203,00
741,71;147,00
742,27;197,00
742,84;341,00
743,40;374,00
743,97;448,00
744,53;340,00
745,09;402,00
745,66;468,00
746,22;592,00
746,78;602,00
747,35;744,00
747,91;652,00
748,47;630,00
749,04;565,00
749,60;516,00
750,16;355,00
750,72;327,00
751,29;233,00
751,85;105,00
752,41;95,000
752,98;65,000
753,54;176,00
754,10;68,000
754,66;48,000
755,23;113,00
755,79;146,00
756,35;227,00
756,91;64,000
757,48;85,000
758,04;-4,0000
758,60;148,00
759,16;132,00
759,73;87,000
760,29;100,000
760,85;68,000
761,41;68,000
761,98;44,000
762,54;87,000
763,10;89,000
763,66;86,000
764,22;128,00
764,79;112,00
765,35;-24,000
765,91;162,00
766,47;105,00
767,03;59,000
767,59;138,00
768,16;88,000
768,72;7,0000
769,28;377,00
769,84;215,00
770,40;62,000
770,96;160,00
771,52;135,00
772,09;143,00
772,65;51,000
773,21;180,00
773,77;92,000
774,33;46,000
774,89;38,000
775,45;91,000
776,01;124,00
776,57;348,00
777,13;747,00
777,70;819,00
778,26;904,00
778,82;886,00
779,38;851,00
779,94;839,00
780,50;796,00
781,06;619,00
781,62;264,00
782,18;184,00
782,74;279,00
783,30;162,00
783,86;76,000
784,42;79,000
784,98;86,000
785,54;186,00
786,10;-14,000
786,66;42,000
787,22;27,000
787,78;17,000
788,34;139,00
788,90;75,000
789,46;114,00
790,02;29,000
790,58;51,000
791,14;83,000
791,70;112,00
792,26;50,000
792,82;93,000
793,38;59,000
793,94;149,00
794,50;201,00
795,06;167,00
795,62;137,00
796,17;137,00
796,73;185,00
797,29;122,00
797,85;204,00
798,41;84,000
798,97;107,00
799,53;8,0000
800,09;107,00
800,65;156,00
801,21;208,00
801,76;15,000
802,32;87,000
802,88;102,00
803,44;-18,000
804,00;-30,000
804,56;-63,000
805,12;92,000
805,67;37,000
806,23;82,000
806,79;104,00
807,35;49,000
807,91;5,0000
808,46;-7,0000
809,02;57,000
809,58;75,000
810,14;96,000
810,70;43,000
811,26;99,000
811,81;-9,0000
812,37;88,000
812,93;77,000
813,49;33,000
814,04;71,000
814,60;-8,0000
815,16;163,00
815,72;145,00
816,27;20,000
816,83;9,0000
817,39;6,0000
817,95;157,00
818,50;243,00
819,06;242,00
819,62;177,00
820,18;222,00
820,73;236,00
821,29;398,00
821,85;375,00
822,40;413,00
822,96;418,00
823,52;360,00
824,07;361,00
824,63;330,00
825,19;368,00
825,74;313,00
826,30;168,00
826,86;214,00
827,41;95,000
827,97;78,000
828,53;57,000
829,08;56,000
829,64;56,000
830,20;172,00
830,75;10,0000
831,31;-33,000
831,86;-8,0000
832,42;-40,000
832,98;73,000
833,53;30,000
834,09;51,000
834,64;130,00
835,20;1,0000
835,76;92,000
836,31;30,000
836,87;160,00
837,42;-23,000
837,98;48,000
838,53;73,000
839,09;202,00
839,64;-11,000
840,20;118,00
840,75;79,000
841,31;44,000
841,87;7,0000
842,42;-84,000
842,98;27,000
843,53;4,0000
844,09;48,000
844,64;222,00
845,20;246,00
845,75;214,00
846,31;163,00
846,86;246,00
847,41;235,00
847,97;134,00
848,52;144,00
849,08;127,00
849,63;60,000
850,19;9,0000
850,74;53,000
851,30;11,000
851,85;15,000
852,41;50,000
852,96;33,000
853,51;175,00
854,07;-1,0000
854,62;88,000
855,18;22,000
855,73;20,000
856,28;-79,000
856,84;50,000
857,39;51,000
857,95;98,000
858,50;163,00
859,05;65,000
859,61;133,00
860,16;80,000
860,71;121,00
861,27;96,000
861,82;138,00
862,37;90,000
862,93;1,0000
863,48;154,00
864,03;187,00
864,59;142,00
865,14;54,000
865,69;211,00
866,25;165,00
866,80;716,00
867,35;233,00
867,90;204,00
868,46;283,00
869,01;238,00
869,56;374,00
870,12;308,00
870,67;409,00
871,22;434,00
871,77;333,00
872,33;328,00
872,88;110,00
873,43;240,00
873,98;156,00
874,54;204,00
875,09;70,000
875,64;99,000
876,19;73,000
876,74;35,000
877,30;72,000
877,85;81,000
878,40;28,000
878,95;7,0000
879,50;25,000
880,06;22,000
880,61;73,000
881,16;109,00
881,71;66,000
882,26;-68,000
882,81;74,000
883,37;83,000
883,92;-2,0000
884,47;-10,0000
885,02;72,000
885,57;136,00
886,12;-1,0000
886,67;-5,0000
887,22;36,000
887,78;33,000
888,33;-13,000
888,88;115,00
889,43;68,000
889,98;109,00
890,53;-16,000
891,08;-26,000
891,63;79,000
892,18;102,00
892,73;80,000
893,28;-1,0000
893,83;19,000
894,38;17,000
894,93;10,0000
895,48;63,000
896,03;22,000
896,59;-4,0000
897,14;79,000
897,69;18,000
898,24;9,0000
898,79;-10,0000
899,34;-4,0000
899,89;16,000
900,44;35,000
900,99;87,000
901,53;60,000
902,08;-50,000
902,63;38,000
903,18;-42,000
903,73;48,000
904,28;30,000
904,83;154,00
905,38;177,00
905,93;81,000
906,48;218,00
907,03;103,00
907,58;136,00
908,13;90,000
908,68;125,00
909,23;110,00
909,78;11,000
910,32;-53,000
910,87;27,000
911,42;82,000
911,97;37,000
912,52;144,00
913,07;3,0000
913,62;50,000
914,17;-54,000
914,71;159,00
915,26;98,000
915,81;-8,0000
916,36;8,0000
916,91;89,000
917,46;63,000
918,00;61,000
918,55;24,000
919,10;92,000
919,65;60,000
920,20;-10,0000
920,74;59,000
921,29;3,0000
921,84;85,000
922,39;99,000
922,94;9,0000
923,48;59,000
924,03;22,000
924,58;-37,000
925,13;41,000
925,67;117,00
926,22;87,000
926,77;115,00
927,32;121,00
927,86;117,00
928,41;152,00
928,96;122,00
929,50;205,00
930,05;149,00
930,60;184,00
931,15;36,000
931,69;162,00
932,24;17,000
932,79;44,000
933,33;28,000
933,88;86,000
934,43;-98,000
934,97;13,000
935,52;1,0000
936,07;10,0000
936,61;-7,0000
937,16;13,000
937,71;-5,0000
938,25;-92,000
938,80;79,000
939,34;143,00
939,89;175,00
940,44;82,000
940,98;68,000
941,53;115,00
942,07;26,000
942,62;87,000
943,17;-8,0000
943,71;-18,000
944,26;-48,000
944,80;100,000
945,35;-29,000
945,89;-103,00
946,44;34,000
946,99;89,000
947,53;29,000
948,08;-53,000
948,62;104,00
949,17;74,000
949,71;64,000
950,26;94,000
950,80;4,0000
951,35;83,000
951,89;39,000
952,44;12,000
952,98;22,000
953,53;72,000
954,07;28,000
954,62;-3,0000
955,16;-116,00
955,71;7,0000
956,25;7,0000
956,79;-21,000
957,34;125,00
957,88;89,000
958,43;-7,0000
958,97;143,00
959,52;29,000
960,06;41,000
960,60;19,000
961,15;-28,000
961,69;43,000
962,24;147,00
962,78;-26,000
963,32;-20,000
963,87;-12,000
964,41;68,000
964,96;24,000
965,50;-35,000
966,04;25,000
966,59;66,000
967,13;1,0000
967,67;-13,000
968,22;-30,000
968,76;17,000
969,30;67,000
969,85;-94,000
970,39;36,000
970,93;36,000
971,47;-15,000
972,02;23,000
972,56;-46,000
973,10;-36,000
973,65;15,000
974,19;98,000
974,73;88,000
975,27;4,0000
975,82;-4,0000
976,36;77,000
976,90;114,00
977,44;-66,000
977,99;-39,000
978,53;-3,0000
979,07;-8,0000
979,61;38,000
980,16;-13,000
980,70;-34,000
981,24;14,000
981,78;-91,000
982,32;-25,000
982,87;18,000
983,41;10,0000
983,95;-28,000
984,49;17,000
985,03;-21,000
985,57;42,000
986,12;97,000
986,66;35,000
987,20;-30,000
987,74;9,0000
988,28;51,000
988,82;-3,0000
989,36;63,000
989,91;-57,000
990,45;-10,0000
990,99;-16,000
991,53;-30,000
992,07;43,000
992,61;39,000
993,15;-111,00
993,69;58,000
994,23;-27,000
994,77;-67,000
995,31;-8,0000
995,86;-72,000
996,40;1,0000
996,94;-16,000
997,48;-73,000
998,02;0
998,56;-27,000
999,10;30,000
999,64;-14,000
1000,18;76,000
1000,72;49,000
1001,26;-20,000
1001,80;39,000
1002,34;-84,000
1002,88;-52,000
1003,42;27,000
1003,96;-22,000
1004,50;16,000
1005,04;-54,000
1005,58;9,0000
1006,12;0
1006,66;131,00
1007,20;50,000
1007,73;4,0000
1008,27;39,000
1008,81;-77,000
1009,35;4,0000
1009,89;52,000
1010,43;-9,0000
1010,97;52,000
1011,51;31,000
1012,05;-22,000
1012,59;104,00
1013,13;63,000
1013,66;35,000
1014,20;59,000
1014,74;85,000
1015,28;-20,000
1015,82;80,000
1016,36;75,000
1016,90;14,000
1017,43;53,000
1017,97;95,000
1018,51;57,000
1019,05;-32,000
1019,59;-66,000
1020,13;-32,000
1020,66;93,000
1021,20;-48,000
1021,74;6,0000
1022,28;-74,000
1022,81;42,000
1023,35;80,000
1023,89;49,000
1024,43;-32,000
1024,97;-22,000
1025,50;-55,000
1026,04;17,000
1026,58;38,000
1027,12;-22,000
1027,65;-20,000
1028,19;61,000
1028,73;-28,000
1029,26;55,000
1029,80;-38,000
1030,34;28,000
1030,88;34,000
1031,41;16,000
1031,95;19,000
1032,49;-20,000
1033,02;32,000
1033,56;18,000
1034,10;-5,0000
1034,63;7,0000
1035,17;-45,000
1035,71;-62,000
1036,24;-111,00
1036,78;-70,000
1037,32;4,0000
1037,85;121,00
1038,39;24,000
1038,92;33,000
1039,46;-63,000
1040,00;-96,000
1040,53;-17,000
1041,07;34,000
1041,60;21,000
1042,14;95,000
1042,68;26,000
1043,21;-49,000
1043,75;-37,000
1044,28;97,000
1044,82;-45,000
1045,35;43,000
1045,89;11,000
1046,42;-20,000
1046,96;66,000
1047,49;-39,000
1048,03;25,000
1048,57;-6,0000
1049,10;115,00
1049,64;-8,0000
1050,17;69,000
1050,70;59,000
1051,24;77,000
1051,77;-21,000
1052,31;62,000
1052,84;-37,000
1053,38;-106,00
1053,91;100,000
1054,45;-23,000
1054,98;101,00
1055,52;47,000
1056,05;3,0000
1056,59;103,00
1057,12;16,000
1057,65;17,000
1058,19;-67,000
1058,72;60,000
1059,26;47,000
1059,79;-33,000
1060,32;-10,0000
1060,86;74,000
1061,39;46,000
1061,93;-15,000
1062,46;152,00
1062,99;15,000
1063,53;-24,000
1064,06;64,000
1064,59;-1,0000
1065,13;-39,000
1065,66;30,000
1066,19;-14,000
1066,73;-104,00
1067,26;2,0000
1067,79;57,000
1068,33;109,00
1068,86;117,00
1069,39;89,000
1069,92;-45,000
1070,46;103,00
1070,99;-22,000
1071,52;-30,000
1072,05;-63,000
1072,59;-54,000
1073,12;-84,000
1073,65;-19,000
1074,18;31,000
1074,72;-75,000
1075,25;-69,000
1075,78;-27,000
1076,31;8,0000
1076,85;10,0000
1077,38;-5,0000
1077,91;64,000
1078,44;-27,000
1078,97;-73,000
1079,51;-13,000
1080,04;24,000
1080,57;-30,000
1081,10;18,000
1081,63;-125,00
1082,16;-39,000
1082,70;-45,000
1083,23;124,00
1083,76;35,000
1084,29;-67,000
1084,82;-3,0000
1085,35;69,000
1085,88;21,000
1086,41;1,0000
1086,94;-115,00
1087,48;0
1088,01;-38,000
1088,54;-48,000
1089,07;29,000
1089,60;-17,000
1090,13;-21,000
1090,66;21,000
1091,19;-4,0000
1091,72;87,000
1092,25;33,000
1092,78;35,000
1093,31;54,000
1093,84;-56,000
1094,37;-50,000
1094,90;105,00
1095,43;-153,00
1095,96;-36,000
1096,49;32,000
1097,02;67,000
1097,55;18,000
1098,08;37,000
1098,61;-75,000
1099,14;-27,000
1099,67;150,00
1100,20;39,000
