M- del 27, 2
Integration time: 5000 ms
Average: 1 scans
Nr of pixels used for smoothing: 0
Data measured with spectrometer serial number: 0604021S1
Wave   ;Sample
[nm]   ;[counts]
173,70;66,000
174,30;41,000
174,90;175,00
175,50;77,000
176,10;5,0000
176,70;10,0000
177,30;-16,000
177,90;22,000
178,50;-46,000
179,10;88,000
179,70;44,000
180,30;27,000
180,89;32,000
181,49;105,00
182,09;72,000
182,69;55,000
183,29;35,000
183,89;47,000
184,49;112,00
185,09;70,000
185,69;26,000
186,29;-11,000
186,89;13,000
187,48;105,00
188,08;-36,000
188,68;107,00
189,28;-3,0000
189,88;43,000
190,48;53,000
191,08;-25,000
191,68;22,000
192,28;-50,000
192,87;21,000
193,47;66,000
194,07;1,0000
194,67;51,000
195,27;-74,000
195,87;22,000
196,47;107,00
197,06;28,000
197,66;10,0000
198,26;41,000
198,86;66,000
199,46;-19,000
200,06;42,000
200,66;132,00
201,25;46,000
201,85;24,000
202,45;31,000
203,05;182,00
203,65;55,000
204,24;121,00
204,84;60,000
205,44;111,00
206,04;-29,000
206,64;109,00
207,24;0
207,83;64,000
208,43;-56,000
209,03;75,000
209,63;76,000
210,22;127,00
210,82;45,000
211,42;51,000
212,02;31,000
212,62;-45,000
213,21;95,000
213,81;44,000
214,41;116,00
215,01;61,000
215,60;47,000
216,20;-132,00
216,80;91,000
217,40;124,00
218,00;179,00
218,59;86,000
219,19;17,000
219,79;61,000
220,38;87,000
220,98;29,000
221,58;80,000
222,18;38,000
222,77;99,000
223,37;57,000
223,97;12,000
224,57;-39,000
225,16;15,000
225,76;85,000
226,36;-86,000
226,95;57,000
227,55;93,000
228,15;88,000
228,75;89,000
229,34;82,000
229,94;38,000
230,54;152,00
231,13;31,000
231,73;93,000
232,33;16,000
232,92;40,000
233,52;-79,000
234,12;22,000
234,71;-5,0000
235,31;175,00
235,91;79,000
236,50;58,000
237,10;48,000
237,70;353,00
238,29;42,000
238,89;68,000
239,49;33,000
240,08;23,000
240,68;49,000
241,28;96,000
241,87;181,00
242,47;47,000
243,06;50,000
243,66;34,000
244,26;117,00
244,85;244,00
245,45;-22,000
246,05;61,000
246,64;-24,000
247,24;140,00
247,83;143,00
248,43;-70,000
249,03;-29,000
249,62;27,000
250,22;70,000
250,81;129,00
251,41;65,000
252,01;41,000
252,60;71,000
253,20;103,00
253,79;81,000
254,39;94,000
254,98;61,000
255,58;-4,0000
256,18;115,00
256,77;115,00
257,37;83,000
257,96;34,000
258,56;100,000
259,15;10,0000
259,75;97,000
260,34;116,00
260,94;52,000
261,53;7,0000
262,13;65,000
262,73;43,000
263,32;34,000
263,92;139,00
264,51;56,000
265,11;34,000
265,70;-49,000
266,30;95,000
266,89;82,000
267,49;68,000
268,08;-36,000
268,68;41,000
269,27;63,000
269,87;84,000
270,46;39,000
271,06;6,0000
271,65;51,000
272,25;69,000
272,84;29,000
273,44;39,000
274,03;37,000
274,62;36,000
275,22;49,000
275,81;92,000
276,41;130,00
277,00;-20,000
277,60;167,00
278,19;80,000
278,79;-6,0000
279,38;-53,000
279,98;0
280,57;9,0000
281,16;96,000
281,76;21,000
282,35;142,00
282,95;183,00
283,54;66,000
284,14;2,0000
284,73;64,000
285,32;34,000
285,92;84,000
286,51;-46,000
287,11;-10,0000
287,70;-4,0000
288,29;58,000
288,89;7,0000
289,48;31,000
290,08;139,00
290,67;24,000
291,26;89,000
291,86;16,000
292,45;69,000
293,04;-13,000
293,64;19,000
294,23;158,00
294,83;46,000
295,42;83,000
296,01;-12,000
296,61;124,00
297,20;129,00
297,79;92,000
298,39;107,00
298,98;114,00
299,57;65,000
300,17;99,000
300,76;11,000
301,35;52,000
301,95;70,000
302,54;40,000
303,13;16,000
303,73;54,000
304,32;103,00
304,91;27,000
305,51;235,00
306,10;152,00
306,69;53,000
307,28;57,000
307,88;57,000
308,47;87,000
309,06;49,000
309,66;72,000
310,25;128,00
310,84;43,000
311,43;73,000
312,03;1,0000
312,62;127,00
313,21;212,00
313,81;111,00
314,40;101,00
314,99;255,00
315,58;366,00
316,18;450,00
316,77;366,00
317,36;306,00
317,95;281,00
318,54;173,00
319,14;218,00
319,73;56,000
320,32;153,00
320,91;32,000
321,51;99,000
322,10;-37,000
322,69;64,000
323,28;61,000
323,87;42,000
324,47;86,000
325,06;67,000
325,65;77,000
326,24;3,0000
326,83;163,00
327,43;-255,00
328,02;112,00
328,61;-50,000
329,20;7,0000
329,79;210,00
330,39;119,00
330,98;177,00
331,57;1,0000
332,16;128,00
332,75;220,00
333,34;151,00
333,93;179,00
334,53;161,00
335,12;343,00
335,71;871,00
336,30;1937,0
336,89;2930,0
337,48;2880,0
338,07;2828,0
338,67;2836,0
339,26;2531,0
339,85;2228,0
340,44;1357,0
341,03;344,00
341,62;105,00
342,21;219,00
342,80;162,00
343,39;126,00
343,99;67,000
344,58;106,00
345,17;146,00
345,76;70,000
346,35;80,000
346,94;111,00
347,53;164,00
348,12;38,000
348,71;165,00
349,30;208,00
349,89;102,00
350,48;110,00
351,07;170,00
351,66;345,00
352,26;492,00
352,85;775,00
353,44;1113,0
354,03;1051,0
354,62;1164,0
355,21;1098,0
355,80;1503,0
356,39;2145,0
356,98;3667,0
357,57;3968,0
358,16;3940,0
358,75;3827,0
359,34;3618,0
359,93;3406,0
360,52;2687,0
361,11;1285,0
361,70;240,00
362,29;151,00
362,88;45,000
363,47;81,000
364,06;11,000
364,65;73,000
365,24;74,000
365,83;67,000
366,42;17,000
367,01;154,00
367,60;174,00
368,19;180,00
368,78;30,000
369,37;193,00
369,95;366,00
370,54;421,00
371,13;532,00
371,72;415,00
372,31;461,00
372,90;454,00
373,49;576,00
374,08;643,00
374,67;1124,0
375,26;1474,0
375,85;1394,0
376,44;1398,0
377,03;1316,0
377,61;1176,0
378,20;1151,0
378,79;1165,0
379,38;1173,0
379,97;2092,0
380,56;2132,0
381,15;2171,0
381,74;2044,0
382,33;1870,0
382,91;1628,0
383,50;1299,0
384,09;510,00
384,68;92,000
385,27;8,0000
385,86;22,000
386,45;42,000
387,03;105,00
387,62;68,000
388,21;82,000
388,80;71,000
389,39;172,00
389,98;132,00
390,57;171,00
391,15;244,00
391,74;101,00
392,33;240,00
392,92;149,00
393,51;265,00
394,09;206,00
394,68;277,00
395,27;261,00
395,86;292,00
396,45;336,00
397,03;432,00
397,62;244,00
398,21;290,00
398,80;536,00
399,39;844,00
399,97;751,00
400,56;851,00
401,15;715,00
401,74;878,00
402,32;584,00
402,91;654,00
403,50;300,00
404,09;280,00
404,67;472,00
405,26;831,00
405,85;893,00
406,44;1010,0
407,02;984,00
407,61;878,00
408,20;853,00
408,78;746,00
409,37;453,00
409,96;174,00
410,55;151,00
411,13;235,00
411,72;142,00
412,31;181,00
412,89;72,000
413,48;116,00
414,07;180,00
414,65;72,000
415,24;183,00
415,83;87,000
416,42;211,00
417,00;211,00
417,59;82,000
418,18;63,000
418,76;95,000
419,35;227,00
419,94;353,00
420,52;358,00
421,11;393,00
421,69;271,00
422,28;259,00
422,87;305,00
423,45;190,00
424,04;195,00
424,63;152,00
425,21;166,00
425,80;274,00
426,38;500,00
426,97;534,00
427,56;482,00
428,14;636,00
428,73;481,00
429,31;543,00
429,90;314,00
430,49;248,00
431,07;129,00
431,66;105,00
432,24;245,00
432,83;171,00
433,42;250,00
434,00;404,00
434,59;454,00
435,17;508,00
435,76;439,00
436,34;438,00
436,93;443,00
437,51;348,00
438,10;95,000
438,69;125,00
439,27;74,000
439,86;32,000
440,44;84,000
441,03;51,000
441,61;121,00
442,20;217,00
442,78;99,000
443,37;164,00
443,95;103,00
444,54;29,000
445,12;64,000
445,71;127,00
446,29;50,000
446,88;16,000
447,46;159,00
448,05;154,00
448,63;174,00
449,22;100,000
449,80;204,00
450,39;110,00
450,97;145,00
451,56;71,000
452,14;31,000
452,72;78,000
453,31;24,000
453,89;-9,0000
454,48;41,000
455,06;143,00
455,65;126,00
456,23;109,00
456,81;257,00
457,40;247,00
457,98;156,00
458,57;268,00
459,15;148,00
459,74;76,000
460,32;132,00
460,90;91,000
461,49;105,00
462,07;51,000
462,66;152,00
463,24;88,000
463,82;6,0000
464,41;118,00
464,99;90,000
465,57;88,000
466,16;235,00
466,74;199,00
467,33;255,00
467,91;126,00
468,49;98,000
469,08;111,00
469,66;152,00
470,24;71,000
470,83;16,000
471,41;84,000
471,99;53,000
472,58;84,000
473,16;101,00
473,74;113,00
474,33;18,000
474,91;69,000
475,49;45,000
476,08;42,000
476,66;113,00
477,24;94,000
477,82;25,000
478,41;149,00
478,99;58,000
479,57;32,000
480,16;92,000
480,74;33,000
481,32;92,000
481,90;109,00
482,49;38,000
483,07;43,000
483,65;289,00
484,23;158,00
484,82;109,00
485,40;70,000
485,98;157,00
486,56;120,00
487,15;239,00
487,73;35,000
488,31;203,00
488,89;110,00
489,47;67,000
490,06;200,00
490,64;32,000
491,22;223,00
491,80;106,00
492,39;152,00
492,97;30,000
493,55;83,000
494,13;121,00
494,71;-22,000
495,29;35,000
495,88;46,000
496,46;61,000
497,04;58,000
497,62;42,000
498,20;89,000
498,78;109,00
499,37;66,000
499,95;93,000
500,53;134,00
501,11;83,000
501,69;112,00
502,27;36,000
502,85;14,000
503,44;19,000
504,02;94,000
504,60;109,00
505,18;-31,000
505,76;73,000
506,34;51,000
506,92;99,000
507,50;150,00
508,08;67,000
508,67;90,000
509,25;-50,000
509,83;78,000
510,41;114,00
510,99;61,000
511,57;118,00
512,15;5,0000
512,73;-77,000
513,31;98,000
513,89;16,000
514,47;116,00
515,05;76,000
515,63;59,000
516,21;149,00
516,79;39,000
517,38;130,00
517,96;11,000
518,54;-34,000
519,12;69,000
519,70;169,00
520,28;79,000
520,86;138,00
521,44;106,00
522,02;31,000
522,60;40,000
523,18;97,000
523,76;57,000
524,34;62,000
524,92;31,000
525,50;56,000
526,08;78,000
526,66;103,00
527,24;46,000
527,82;-23,000
528,39;182,00
528,97;17,000
529,55;93,000
530,13;177,00
530,71;10,0000
531,29;46,000
531,87;-18,000
532,45;39,000
533,03;42,000
533,61;87,000
534,19;110,00
534,77;183,00
535,35;92,000
535,93;43,000
536,51;63,000
537,08;28,000
537,66;66,000
538,24;64,000
538,82;134,00
539,40;33,000
539,98;104,00
540,56;10,0000
541,14;175,00
541,72;77,000
542,29;31,000
542,87;173,00
543,45;139,00
544,03;233,00
544,61;123,00
545,19;76,000
545,77;142,00
546,34;166,00
546,92;197,00
547,50;165,00
548,08;182,00
548,66;153,00
549,23;247,00
549,81;53,000
550,39;135,00
550,97;21,000
551,55;66,000
552,13;156,00
552,70;204,00
553,28;-12,000
553,86;13,000
554,44;141,00
555,01;130,00
555,59;123,00
556,17;-19,000
556,75;39,000
557,33;87,000
557,90;135,00
558,48;80,000
559,06;10,0000
559,64;17,000
560,21;49,000
560,79;35,000
561,37;63,000
561,95;70,000
562,52;36,000
563,10;117,00
563,68;80,000
564,25;-23,000
564,83;-7,0000
565,41;69,000
565,99;95,000
566,56;-14,000
567,14;72,000
567,72;193,00
568,29;35,000
568,87;170,00
569,45;114,00
570,02;38,000
570,60;55,000
571,18;101,00
571,75;193,00
572,33;97,000
572,91;2,0000
573,48;75,000
574,06;-33,000
574,64;207,00
575,21;12,000
575,79;112,00
576,37;24,000
576,94;79,000
577,52;92,000
578,09;126,00
578,67;69,000
579,25;89,000
579,82;65,000
580,40;296,00
580,97;234,00
581,55;102,00
582,13;50,000
582,70;71,000
583,28;119,00
583,85;-34,000
584,43;0
585,01;68,000
585,58;129,00
586,16;29,000
586,73;139,00
587,31;83,000
587,88;145,00
588,46;186,00
589,03;50,000
589,61;136,00
590,18;156,00
590,76;66,000
591,34;-38,000
591,91;122,00
592,49;62,000
593,06;140,00
593,64;88,000
594,21;93,000
594,79;93,000
595,36;32,000
595,94;110,00
596,51;92,000
597,09;41,000
597,66;107,00
598,24;89,000
598,81;112,00
599,38;112,00
599,96;121,00
600,53;6,0000
601,11;160,00
601,68;78,000
602,26;134,00
602,83;87,000
603,41;149,00
603,98;56,000
604,56;70,000
605,13;76,000
605,70;0
606,28;50,000
606,85;47,000
607,43;47,000
608,00;103,00
608,57;81,000
609,15;82,000
609,72;98,000
610,30;75,000
610,87;144,00
611,44;134,00
612,02;153,00
612,59;164,00
613,16;147,00
613,74;159,00
614,31;153,00
614,89;119,00
615,46;87,000
616,03;138,00
616,61;92,000
617,18;112,00
617,75;2,0000
618,33;13,000
618,90;48,000
619,47;212,00
620,05;52,000
620,62;50,000
621,19;51,000
621,77;91,000
622,34;164,00
622,91;135,00
623,48;74,000
624,06;39,000
624,63;129,00
625,20;171,00
625,78;71,000
626,35;69,000
626,92;154,00
627,49;57,000
628,07;78,000
628,64;157,00
629,21;-46,000
629,78;61,000
630,36;57,000
630,93;87,000
631,50;104,00
632,07;46,000
632,65;-8,0000
633,22;100,000
633,79;126,00
634,36;77,000
634,93;46,000
635,51;152,00
636,08;-56,000
636,65;-44,000
637,22;128,00
637,79;149,00
638,37;130,00
638,94;115,00
639,51;33,000
640,08;187,00
640,65;12,000
641,22;55,000
641,80;71,000
642,37;-100,000
642,94;79,000
643,51;40,000
644,08;150,00
644,65;41,000
645,22;35,000
645,80;99,000
646,37;41,000
646,94;58,000
647,51;74,000
648,08;99,000
648,65;100,000
649,22;86,000
649,79;12,000
650,36;142,00
650,93;64,000
651,51;60,000
652,08;26,000
652,65;97,000
653,22;110,00
653,79;194,00
654,36;79,000
654,93;155,00
655,50;172,00
656,07;102,00
656,64;8,0000
657,21;45,000
657,78;22,000
658,35;10,0000
658,92;64,000
659,49;145,00
660,06;47,000
660,63;23,000
661,20;100,000
661,77;74,000
662,34;285,00
662,91;201,00
663,48;118,00
664,05;108,00
664,62;0
665,19;81,000
665,76;98,000
666,33;74,000
666,90;52,000
667,47;122,00
668,04;172,00
668,61;103,00
669,18;60,000
669,75;72,000
670,32;156,00
670,89;96,000
671,46;150,00
672,03;171,00
672,60;87,000
673,17;109,00
673,74;75,000
674,30;171,00
674,87;252,00
675,44;76,000
676,01;38,000
676,58;64,000
677,15;88,000
677,72;203,00
678,29;90,000
678,86;95,000
679,42;189,00
679,99;72,000
680,56;71,000
681,13;-2,0000
681,70;91,000
682,27;40,000
682,84;153,00
683,40;27,000
683,97;50,000
684,54;231,00
685,11;-20,000
685,68;55,000
686,25;149,00
686,81;17,000
687,38;189,00
687,95;60,000
688,52;92,000
689,09;-66,000
689,65;63,000
690,22;37,000
690,79;14,000
691,36;45,000
691,92;48,000
692,49;22,000
693,06;2,0000
693,63;48,000
694,20;199,00
694,76;121,00
695,33;18,000
695,90;71,000
696,47;42,000
697,03;48,000
697,60;84,000
698,17;64,000
698,73;55,000
699,30;89,000
699,87;47,000
700,44;74,000
701,00;26,000
701,57;41,000
702,14;102,00
702,70;34,000
703,27;14,000
703,84;-13,000
704,40;128,00
704,97;31,000
705,54;46,000
706,10;51,000
706,67;51,000
707,24;50,000
707,80;19,000
708,37;163,00
708,94;-25,000
709,50;51,000
710,07;89,000
710,64;53,000
711,20;96,000
711,77;86,000
712,33;102,00
712,90;15,000
713,47;108,00
714,03;-6,0000
714,60;-542,00
715,16;106,00
715,73;56,000
716,30;150,00
716,86;166,00
717,43;78,000
717,99;37,000
718,56;22,000
719,12;39,000
719,69;95,000
720,26;178,00
720,82;0
721,39;-2,0000
721,95;80,000
722,52;56,000
723,08;15,000
723,65;121,00
724,21;33,000
724,78;89,000
725,34;36,000
725,91;31,000
726,47;101,00
727,04;92,000
727,60;85,000
728,17;140,00
728,73;189,00
729,30;179,00
729,86;57,000
730,43;38,000
730,99;91,000
731,56;135,00
732,12;195,00
732,68;121,00
733,25;168,00
733,81;131,00
734,38;10,0000
734,94;183,00
735,51;73,000
736,07;81,000
736,63;105,00
737,20;121,00
737,76;249,00
738,33;89,000
738,89;35,000
739,46;63,000
740,02;64,000
740,58;52,000
741,15;21,000
741,71;94,000
742,27;39,000
742,84;87,000
743,40;126,00
743,97;248,00
744,53;74,000
745,09;78,000
745,66;102,00
746,22;47,000
746,78;56,000
747,35;156,00
747,91;37,000
748,47;63,000
749,04;102,00
749,60;129,00
750,16;148,00
750,72;95,000
751,29;54,000
751,85;153,00
752,41;104,00
752,98;34,000
753,54;-11,000
754,10;134,00
754,66;132,00
755,23;127,00
755,79;8,0000
756,35;127,00
756,91;74,000
757,48;42,000
758,04;-2,0000
758,60;36,000
759,16;116,00
759,73;17,000
760,29;22,000
760,85;60,000
761,41;19,000
761,98;144,00
762,54;124,00
763,10;-28,000
763,66;149,00
764,22;128,00
764,79;35,000
765,35;25,000
765,91;55,000
766,47;104,00
767,03;117,00
767,59;24,000
768,16;122,00
768,72;144,00
769,28;32,000
769,84;191,00
770,40;117,00
770,96;50,000
771,52;84,000
772,09;53,000
772,65;98,000
773,21;64,000
773,77;94,000
774,33;138,00
774,89;183,00
775,45;119,00
776,01;93,000
776,57;106,00
777,13;107,00
777,70;146,00
778,26;64,000
778,82;125,00
779,38;52,000
779,94;154,00
780,50;58,000
781,06;-66,000
781,62;60,000
782,18;44,000
782,74;73,000
783,30;118,00
783,86;86,000
784,42;72,000
784,98;34,000
785,54;153,00
786,10;73,000
786,66;171,00
787,22;96,000
787,78;63,000
788,34;70,000
788,90;77,000
789,46;-13,000
790,02;8,0000
790,58;48,000
791,14;97,000
791,70;50,000
792,26;80,000
792,82;112,00
793,38;-176,00
793,94;34,000
794,50;160,00
795,06;32,000
795,62;97,000
796,17;138,00
796,73;40,000
797,29;2,0000
797,85;117,00
798,41;20,000
798,97;59,000
799,53;51,000
800,09;84,000
800,65;36,000
801,21;64,000
801,76;-52,000
802,32;90,000
802,88;86,000
803,44;65,000
804,00;103,00
804,56;79,000
805,12;155,00
805,67;129,00
806,23;78,000
806,79;66,000
807,35;51,000
807,91;73,000
808,46;44,000
809,02;-5,0000
809,58;83,000
810,14;81,000
810,70;52,000
811,26;101,00
811,81;133,00
812,37;101,00
812,93;74,000
813,49;84,000
814,04;102,00
814,60;29,000
815,16;57,000
815,72;107,00
816,27;-18,000
816,83;52,000
817,39;70,000
817,95;87,000
818,50;39,000
819,06;131,00
819,62;11,000
820,18;87,000
820,73;211,00
821,29;108,00
821,85;132,00
822,40;61,000
822,96;4,0000
823,52;120,00
824,07;-139,00
824,63;15,000
825,19;89,000
825,74;17,000
826,30;92,000
826,86;74,000
827,41;81,000
827,97;84,000
828,53;-25,000
829,08;18,000
829,64;11,000
830,20;-54,000
830,75;-6,0000
831,31;9,0000
831,86;19,000
832,42;22,000
832,98;158,00
833,53;38,000
834,09;98,000
834,64;28,000
835,20;19,000
835,76;-70,000
836,31;89,000
836,87;93,000
837,42;166,00
837,98;-60,000
838,53;107,00
839,09;-72,000
839,64;-5,0000
840,20;38,000
840,75;96,000
841,31;68,000
841,87;81,000
842,42;-14,000
842,98;135,00
843,53;122,00
844,09;57,000
844,64;59,000
845,20;84,000
845,75;83,000
846,31;66,000
846,86;88,000
847,41;11,000
847,97;54,000
848,52;94,000
849,08;41,000
849,63;90,000
850,19;140,00
850,74;-12,000
851,30;-5,0000
851,85;103,00
852,41;43,000
852,96;99,000
853,51;30,000
854,07;75,000
854,62;39,000
855,18;40,000
855,73;-20,000
856,28;88,000
856,84;32,000
857,39;-15,000
857,95;119,00
858,50;43,000
859,05;75,000
859,61;66,000
860,16;87,000
860,71;92,000
861,27;27,000
861,82;125,00
862,37;105,00
862,93;142,00
863,48;45,000
864,03;49,000
864,59;-85,000
865,14;33,000
865,69;110,00
866,25;24,000
866,80;-511,00
867,35;26,000
867,90;208,00
868,46;36,000
869,01;-12,000
869,56;43,000
870,12;23,000
870,67;31,000
871,22;7,0000
871,77;53,000
872,33;77,000
872,88;94,000
873,43;50,000
873,98;138,00
874,54;10,0000
875,09;-58,000
875,64;-70,000
876,19;17,000
876,74;-9,0000
877,30;106,00
877,85;-10,0000
878,40;137,00
878,95;-29,000
879,50;6,0000
880,06;90,000
880,61;58,000
881,16;2,0000
881,71;-14,000
882,26;42,000
882,81;77,000
883,37;143,00
883,92;25,000
884,47;45,000
885,02;103,00
885,57;131,00
886,12;52,000
886,67;97,000
887,22;122,00
887,78;20,000
888,33;62,000
888,88;59,000
889,43;2,0000
889,98;39,000
890,53;44,000
891,08;55,000
891,63;44,000
892,18;136,00
892,73;128,00
893,28;8,0000
893,83;78,000
894,38;39,000
894,93;90,000
895,48;10,0000
896,03;36,000
896,59;66,000
897,14;38,000
897,69;71,000
898,24;25,000
898,79;68,000
899,34;81,000
899,89;65,000
900,44;9,0000
900,99;63,000
901,53;-117,00
902,08;102,00
902,63;58,000
903,18;150,00
903,73;134,00
904,28;16,000
904,83;92,000
905,38;-8,0000
905,93;51,000
906,48;61,000
907,03;70,000
907,58;-15,000
908,13;-30,000
908,68;76,000
909,23;42,000
909,78;34,000
910,32;38,000
910,87;37,000
911,42;30,000
911,97;4,0000
912,52;96,000
913,07;62,000
913,62;25,000
914,17;48,000
914,71;37,000
915,26;69,000
915,81;-12,000
916,36;22,000
916,91;25,000
917,46;57,000
918,00;74,000
918,55;105,00
919,10;13,000
919,65;100,000
920,20;50,000
920,74;67,000
921,29;122,00
921,84;20,000
922,39;66,000
922,94;30,000
923,48;143,00
924,03;33,000
924,58;82,000
925,13;45,000
925,67;114,00
926,22;-90,000
926,77;54,000
927,32;-6,0000
927,86;48,000
928,41;75,000
928,96;18,000
929,50;-56,000
930,05;101,00
930,60;-12,000
931,15;-15,000
931,69;128,00
932,24;-1,0000
932,79;59,000
933,33;86,000
933,88;105,00
934,43;27,000
934,97;48,000
935,52;58,000
936,07;118,00
936,61;74,000
937,16;101,00
937,71;-68,000
938,25;127,00
938,80;113,00
939,34;-2,0000
939,89;152,00
940,44;145,00
940,98;31,000
941,53;91,000
942,07;119,00
942,62;87,000
943,17;-62,000
943,71;20,000
944,26;-93,000
944,80;168,00
945,35;5,0000
945,89;177,00
946,44;19,000
946,99;21,000
947,53;-39,000
948,08;2,0000
948,62;-10,0000
949,17;19,000
949,71;48,000
950,26;46,000
950,80;15,000
951,35;40,000
951,89;118,00
952,44;18,000
952,98;-14,000
953,53;84,000
954,07;76,000
954,62;25,000
955,16;72,000
955,71;42,000
956,25;77,000
956,79;51,000
957,34;-25,000
957,88;113,00
958,43;1,0000
958,97;-57,000
959,52;-64,000
960,06;55,000
960,60;154,00
961,15;58,000
961,69;-57,000
962,24;138,00
962,78;54,000
963,32;30,000
963,87;83,000
964,41;129,00
964,96;96,000
965,50;-100,000
966,04;63,000
966,59;58,000
967,13;61,000
967,67;-97,000
968,22;78,000
968,76;14,000
969,30;59,000
969,85;-235,00
970,39;41,000
970,93;158,00
971,47;51,000
972,02;56,000
972,56;71,000
973,10;-29,000
973,65;58,000
974,19;-5,0000
974,73;99,000
975,27;106,00
975,82;23,000
976,36;-1,0000
976,90;81,000
977,44;82,000
977,99;-37,000
978,53;33,000
979,07;120,00
979,61;48,000
980,16;61,000
980,70;-23,000
981,24;-21,000
981,78;74,000
982,32;50,000
982,87;-20,000
983,41;89,000
983,95;40,000
984,49;122,00
985,03;34,000
985,57;10,0000
986,12;23,000
986,66;59,000
987,20;1,0000
987,74;32,000
988,28;88,000
988,82;59,000
989,36;11,000
989,91;12,000
990,45;39,000
990,99;-17,000
991,53;51,000
992,07;33,000
992,61;81,000
993,15;27,000
993,69;70,000
994,23;97,000
994,77;71,000
995,31;50,000
995,86;-38,000
996,40;12,000
996,94;101,00
997,48;125,00
998,02;17,000
998,56;20,000
999,10;-63,000
999,64;11,000
1000,18;-7,0000
1000,72;111,00
1001,26;131,00
1001,80;-12,000
1002,34;109,00
1002,88;49,000
1003,42;-10,0000
1003,96;-5,0000
1004,50;13,000
1005,04;-69,000
1005,58;173,00
1006,12;74,000
1006,66;-3,0000
1007,20;-20,000
1007,73;24,000
1008,27;6,0000
1008,81;100,000
1009,35;92,000
1009,89;15,000
1010,43;-15,000
1010,97;76,000
1011,51;-4,0000
1012,05;91,000
1012,59;137,00
1013,13;118,00
1013,66;15,000
1014,20;125,00
1014,74;-8,0000
1015,28;29,000
1015,82;32,000
1016,36;26,000
1016,90;10,0000
1017,43;30,000
1017,97;148,00
1018,51;-24,000
1019,05;65,000
1019,59;41,000
1020,13;114,00
1020,66;19,000
1021,20;-138,00
1021,74;46,000
1022,28;50,000
1022,81;138,00
1023,35;99,000
1023,89;20,000
1024,43;68,000
1024,97;79,000
1025,50;109,00
1026,04;-36,000
1026,58;-13,000
1027,12;68,000
1027,65;69,000
1028,19;30,000
1028,73;8,0000
1029,26;70,000
1029,80;111,00
1030,34;14,000
1030,88;55,000
1031,41;89,000
1031,95;30,000
1032,49;-55,000
1033,02;-24,000
1033,56;20,000
1034,10;29,000
1034,63;90,000
1035,17;48,000
1035,71;79,000
1036,24;28,000
1036,78;36,000
1037,32;-18,000
1037,85;6,0000
1038,39;65,000
1038,92;26,000
1039,46;-50,000
1040,00;176,00
1040,53;16,000
1041,07;89,000
1041,60;75,000
1042,14;20,000
1042,68;55,000
1043,21;-5,0000
1043,75;18,000
1044,28;68,000
1044,82;-5,0000
1045,35;75,000
1045,89;41,000
1046,42;16,000
1046,96;44,000
1047,49;-16,000
1048,03;7,0000
1048,57;85,000
1049,10;-25,000
1049,64;-264,00
1050,17;33,000
1050,70;16,000
1051,24;46,000
1051,77;17,000
1052,31;-17,000
1052,84;61,000
1053,38;17,000
1053,91;146,00
1054,45;4,0000
1054,98;15,000
1055,52;90,000
1056,05;7,0000
1056,59;82,000
1057,12;82,000
1057,65;-31,000
1058,19;-56,000
1058,72;88,000
1059,26;10,0000
1059,79;49,000
1060,32;38,000
1060,86;9,0000
1061,39;20,000
1061,93;5,0000
1062,46;12,000
1062,99;113,00
1063,53;104,00
1064,06;89,000
1064,59;20,000
1065,13;16,000
1065,66;72,000
1066,19;68,000
1066,73;24,000
1067,26;79,000
1067,79;134,00
1068,33;47,000
1068,86;125,00
1069,39;47,000
1069,92;-46,000
1070,46;-1,0000
1070,99;-6,0000
1071,52;-53,000
1072,05;-37,000
1072,59;136,00
1073,12;26,000
1073,65;20,000
1074,18;107,00
1074,72;12,000
1075,25;57,000
1075,78;3,0000
1076,31;61,000
1076,85;57,000
1077,38;-36,000
1077,91;69,000
1078,44;61,000
1078,97;43,000
1079,51;96,000
1080,04;95,000
1080,57;21,000
1081,10;-65,000
1081,63;47,000
1082,16;52,000
1082,70;106,00
1083,23;160,00
1083,76;108,00
1084,29;-11,000
1084,82;-13,000
1085,35;56,000
1085,88;53,000
1086,41;20,000
1086,94;61,000
1087,48;43,000
1088,01;-23,000
1088,54;109,00
1089,07;156,00
1089,60;58,000
1090,13;15,000
1090,66;-24,000
1091,19;174,00
1091,72;71,000
1092,25;-56,000
1092,78;-55,000
1093,31;-25,000
1093,84;195,00
1094,37;26,000
1094,90;7,0000
1095,43;58,000
1095,96;37,000
1096,49;6,0000
1097,02;35,000
1097,55;31,000
1098,08;66,000
1098,61;107,00
1099,14;114,00
1099,67;176,00
1100,20;106,00
