M- 26 del, 5, sur
Integration time: 5000 ms
Average: 1 scans
Nr of pixels used for smoothing: 0
Data measured with spectrometer serial number: 0604021S1
Wave   ;Sample
[nm]   ;[counts]
173,70;-4,0000
174,30;62,000
174,90;40,000
175,50;28,000
176,10;87,000
176,70;11,000
177,30;-8,0000
177,90;-65,000
178,50;-16,000
179,10;66,000
179,70;13,000
180,30;-30,000
180,89;-52,000
181,49;-12,000
182,09;-57,000
182,69;36,000
183,29;-3,0000
183,89;-1,0000
184,49;9,0000
185,09;77,000
185,69;-72,000
186,29;-56,000
186,89;-8,0000
187,48;20,000
188,08;-94,000
188,68;-11,000
189,28;40,000
189,88;67,000
190,48;-40,000
191,08;-127,00
191,68;46,000
192,28;-7,0000
192,87;-18,000
193,47;2,0000
194,07;-13,000
194,67;-21,000
195,27;12,000
195,87;-77,000
196,47;16,000
197,06;-81,000
197,66;11,000
198,26;-31,000
198,86;-10,0000
199,46;-14,000
200,06;-10,0000
200,66;-75,000
201,25;16,000
201,85;-65,000
202,45;80,000
203,05;21,000
203,65;-59,000
204,24;-13,000
204,84;-100,000
205,44;122,00
206,04;74,000
206,64;2,0000
207,24;10,0000
207,83;-79,000
208,43;-24,000
209,03;9,0000
209,63;-20,000
210,22;38,000
210,82;35,000
211,42;-29,000
212,02;0
212,62;49,000
213,21;-56,000
213,81;0
214,41;19,000
215,01;61,000
215,60;-24,000
216,20;31,000
216,80;-11,000
217,40;31,000
218,00;42,000
218,59;-61,000
219,19;1,0000
219,79;-19,000
220,38;10,0000
220,98;0
221,58;-50,000
222,18;36,000
222,77;29,000
223,37;-15,000
223,97;-21,000
224,57;-42,000
225,16;-53,000
225,76;-15,000
226,36;42,000
226,95;-15,000
227,55;43,000
228,15;48,000
228,75;58,000
229,34;-46,000
229,94;28,000
230,54;-141,00
231,13;-40,000
231,73;65,000
232,33;-97,000
232,92;28,000
233,52;29,000
234,12;-13,000
234,71;41,000
235,31;80,000
235,91;34,000
236,50;74,000
237,10;156,00
237,70;-23,000
238,29;29,000
238,89;12,000
239,49;-15,000
240,08;-67,000
240,68;56,000
241,28;62,000
241,87;-55,000
242,47;62,000
243,06;3,0000
243,66;111,00
244,26;-56,000
244,85;-14,000
245,45;-66,000
246,05;1,0000
246,64;-21,000
247,24;-122,00
247,83;73,000
248,43;0
249,03;91,000
249,62;-3,0000
250,22;58,000
250,81;-68,000
251,41;49,000
252,01;37,000
252,60;30,000
253,20;11,000
253,79;168,00
254,39;14,000
254,98;105,00
255,58;-3,0000
256,18;95,000
256,77;44,000
257,37;49,000
257,96;-61,000
258,56;-12,000
259,15;124,00
259,75;-56,000
260,34;42,000
260,94;3,0000
261,53;-17,000
262,13;47,000
262,73;-13,000
263,32;46,000
263,92;5,0000
264,51;2,0000
265,11;21,000
265,70;40,000
266,30;5,0000
266,89;10,0000
267,49;-33,000
268,08;41,000
268,68;-12,000
269,27;-25,000
269,87;76,000
270,46;-23,000
271,06;23,000
271,65;39,000
272,25;58,000
272,84;-23,000
273,44;19,000
274,03;-31,000
274,62;-6,0000
275,22;40,000
275,81;40,000
276,41;111,00
277,00;74,000
277,60;17,000
278,19;61,000
278,79;-5,0000
279,38;-15,000
279,98;-4,0000
280,57;1,0000
281,16;-23,000
281,76;-33,000
282,35;6,0000
282,95;-34,000
283,54;-46,000
284,14;-97,000
284,73;54,000
285,32;5,0000
285,92;74,000
286,51;-40,000
287,11;51,000
287,70;27,000
288,29;34,000
288,89;-17,000
289,48;-18,000
290,08;25,000
290,67;-72,000
291,26;-16,000
291,86;-1,0000
292,45;22,000
293,04;-69,000
293,64;35,000
294,23;25,000
294,83;20,000
295,42;48,000
296,01;39,000
296,61;64,000
297,20;-12,000
297,79;68,000
298,39;122,00
298,98;-19,000
299,57;9,0000
300,17;-54,000
300,76;29,000
301,35;15,000
301,95;-20,000
302,54;-3,0000
303,13;-11,000
303,73;19,000
304,32;41,000
304,91;5,0000
305,51;-16,000
306,10;-41,000
306,69;8,0000
307,28;-71,000
307,88;-45,000
308,47;-17,000
309,06;79,000
309,66;48,000
310,25;144,00
310,84;15,000
311,43;175,00
312,03;162,00
312,62;179,00
313,21;201,00
313,81;115,00
314,40;466,00
314,99;511,00
315,58;622,00
316,18;512,00
316,77;533,00
317,36;438,00
317,95;499,00
318,54;363,00
319,14;247,00
319,73;33,000
320,32;22,000
320,91;-22,000
321,51;-37,000
322,10;63,000
322,69;-7,0000
323,28;79,000
323,87;29,000
324,47;-7,0000
325,06;48,000
325,65;150,00
326,24;109,00
326,83;185,00
327,43;116,00
328,02;187,00
328,61;148,00
329,20;223,00
329,79;184,00
330,39;234,00
330,98;285,00
331,57;205,00
332,16;324,00
332,75;240,00
333,34;281,00
333,93;477,00
334,53;498,00
335,12;801,00
335,71;1469,0
336,30;3024,0
336,89;4123,0
337,48;4009,0
338,07;3963,0
338,67;3901,0
339,26;3412,0
339,85;2777,0
340,44;1750,0
341,03;386,00
341,62;196,00
342,21;270,00
342,80;138,00
343,39;137,00
343,99;152,00
344,58;159,00
345,17;160,00
345,76;148,00
346,35;178,00
346,94;195,00
347,53;249,00
348,12;120,00
348,71;308,00
349,30;153,00
349,89;350,00
350,48;440,00
351,07;633,00
351,66;832,00
352,26;1199,0
352,85;1747,0
353,44;2094,0
354,03;2354,0
354,62;2169,0
355,21;2502,0
355,80;2978,0
356,39;3901,0
356,98;5574,0
357,57;5974,0
358,16;5764,0
358,75;5551,0
359,34;5248,0
359,93;4568,0
360,52;3678,0
361,11;1924,0
361,70;433,00
362,29;326,00
362,88;71,000
363,47;284,00
364,06;203,00
364,65;291,00
365,24;360,00
365,83;305,00
366,42;426,00
367,01;499,00
367,60;503,00
368,19;604,00
368,78;701,00
369,37;734,00
369,95;979,00
370,54;1162,0
371,13;1264,0
371,72;1255,0
372,31;1245,0
372,90;1198,0
373,49;1339,0
374,08;1727,0
374,67;2308,0
375,26;2732,0
375,85;2640,0
376,44;2668,0
377,03;2430,0
377,61;2496,0
378,20;2209,0
378,79;2097,0
379,38;2220,0
379,97;3200,0
380,56;3421,0
381,15;3310,0
381,74;3258,0
382,33;3033,0
382,91;2600,0
383,50;1921,0
384,09;923,00
384,68;562,00
385,27;515,00
385,86;643,00
386,45;634,00
387,03;756,00
387,62;827,00
388,21;867,00
388,80;1019,0
389,39;1085,0
389,98;961,00
390,57;1068,0
391,15;1137,0
391,74;1066,0
392,33;959,00
392,92;916,00
393,51;1175,0
394,09;1281,0
394,68;1074,0
395,27;1022,0
395,86;923,00
396,45;914,00
397,03;969,00
397,62;862,00
398,21;925,00
398,80;1273,0
399,39;1547,0
399,97;1724,0
400,56;1673,0
401,15;1545,0
401,74;1533,0
402,32;1368,0
402,91;1131,0
403,50;854,00
404,09;831,00
404,67;1191,0
405,26;1526,0
405,85;1670,0
406,44;1703,0
407,02;1746,0
407,61;1733,0
408,20;1446,0
408,78;1461,0
409,37;938,00
409,96;722,00
410,55;675,00
411,13;729,00
411,72;632,00
412,31;602,00
412,89;650,00
413,48;742,00
414,07;869,00
414,65;777,00
415,24;825,00
415,83;800,00
416,42;709,00
417,00;785,00
417,59;776,00
418,18;771,00
418,76;855,00
419,35;1084,0
419,94;1129,0
420,52;1185,0
421,11;1218,0
421,69;1291,0
422,28;1100,0
422,87;1010,0
423,45;983,00
424,04;851,00
424,63;773,00
425,21;948,00
425,80;1006,0
426,38;1371,0
426,97;1374,0
427,56;1358,0
428,14;1246,0
428,73;1326,0
429,31;1158,0
429,90;990,00
430,49;790,00
431,07;556,00
431,66;457,00
432,24;507,00
432,83;615,00
433,42;672,00
434,00;959,00
434,59;828,00
435,17;814,00
435,76;1029,0
436,34;872,00
436,93;898,00
437,51;708,00
438,10;494,00
438,69;343,00
439,27;415,00
439,86;330,00
440,44;390,00
441,03;417,00
441,61;350,00
442,20;452,00
442,78;477,00
443,37;368,00
443,95;349,00
444,54;319,00
445,12;384,00
445,71;279,00
446,29;387,00
446,88;337,00
447,46;413,00
448,05;465,00
448,63;525,00
449,22;444,00
449,80;327,00
450,39;358,00
450,97;420,00
451,56;367,00
452,14;244,00
452,72;154,00
453,31;221,00
453,89;248,00
454,48;243,00
455,06;313,00
455,65;273,00
456,23;378,00
456,81;446,00
457,40;455,00
457,98;366,00
458,57;475,00
459,15;346,00
459,74;369,00
460,32;413,00
460,90;285,00
461,49;254,00
462,07;332,00
462,66;293,00
463,24;448,00
463,82;398,00
464,41;434,00
464,99;471,00
465,57;447,00
466,16;621,00
466,74;375,00
467,33;391,00
467,91;385,00
468,49;318,00
469,08;301,00
469,66;344,00
470,24;216,00
470,83;309,00
471,41;299,00
471,99;217,00
472,58;326,00
473,16;198,00
473,74;354,00
474,33;150,00
474,91;235,00
475,49;125,00
476,08;155,00
476,66;301,00
477,24;140,00
477,82;186,00
478,41;182,00
478,99;103,00
479,57;295,00
480,16;241,00
480,74;274,00
481,32;358,00
481,90;291,00
482,49;489,00
483,07;347,00
483,65;361,00
484,23;327,00
484,82;352,00
485,40;351,00
485,98;354,00
486,56;413,00
487,15;437,00
487,73;474,00
488,31;481,00
488,89;558,00
489,47;520,00
490,06;313,00
490,64;362,00
491,22;364,00
491,80;459,00
492,39;297,00
492,97;230,00
493,55;277,00
494,13;301,00
494,71;207,00
495,29;187,00
495,88;279,00
496,46;176,00
497,04;268,00
497,62;97,000
498,20;254,00
498,78;64,000
499,37;173,00
499,95;308,00
500,53;406,00
501,11;346,00
501,69;323,00
502,27;269,00
502,85;398,00
503,44;277,00
504,02;330,00
504,60;196,00
505,18;261,00
505,76;293,00
506,34;165,00
506,92;174,00
507,50;233,00
508,08;167,00
508,67;140,00
509,25;182,00
509,83;31,000
510,41;195,00
510,99;137,00
511,57;195,00
512,15;133,00
512,73;160,00
513,31;215,00
513,89;70,000
514,47;214,00
515,05;193,00
515,63;36,000
516,21;107,00
516,79;146,00
517,38;153,00
517,96;118,00
518,54;191,00
519,12;125,00
519,70;217,00
520,28;75,000
520,86;215,00
521,44;144,00
522,02;116,00
522,60;107,00
523,18;51,000
523,76;142,00
524,34;194,00
524,92;15,000
525,50;73,000
526,08;248,00
526,66;118,00
527,24;146,00
527,82;104,00
528,39;119,00
528,97;142,00
529,55;101,00
530,13;148,00
530,71;152,00
531,29;93,000
531,87;85,000
532,45;116,00
533,03;210,00
533,61;102,00
534,19;217,00
534,77;13,000
535,35;115,00
535,93;220,00
536,51;70,000
537,08;-65,000
537,66;71,000
538,24;165,00
538,82;163,00
539,40;104,00
539,98;103,00
540,56;92,000
541,14;165,00
541,72;93,000
542,29;155,00
542,87;197,00
543,45;99,000
544,03;236,00
544,61;155,00
545,19;223,00
545,77;181,00
546,34;164,00
546,92;237,00
547,50;133,00
548,08;261,00
548,66;145,00
549,23;97,000
549,81;39,000
550,39;213,00
550,97;54,000
551,55;172,00
552,13;220,00
552,70;238,00
553,28;189,00
553,86;103,00
554,44;140,00
555,01;98,000
555,59;40,000
556,17;159,00
556,75;56,000
557,33;79,000
557,90;258,00
558,48;112,00
559,06;58,000
559,64;70,000
560,21;155,00
560,79;92,000
561,37;100,000
561,95;155,00
562,52;167,00
563,10;51,000
563,68;140,00
564,25;151,00
564,83;82,000
565,41;160,00
565,99;93,000
566,56;199,00
567,14;88,000
567,72;242,00
568,29;226,00
568,87;278,00
569,45;305,00
570,02;274,00
570,60;225,00
571,18;221,00
571,75;204,00
572,33;233,00
572,91;201,00
573,48;90,000
574,06;107,00
574,64;204,00
575,21;164,00
575,79;91,000
576,37;141,00
576,94;136,00
577,52;105,00
578,09;246,00
578,67;80,000
579,25;196,00
579,82;185,00
580,40;255,00
580,97;56,000
581,55;9,0000
582,13;184,00
582,70;141,00
583,28;203,00
583,85;85,000
584,43;53,000
585,01;178,00
585,58;78,000
586,16;183,00
586,73;177,00
587,31;216,00
587,88;130,00
588,46;112,00
589,03;288,00
589,61;205,00
590,18;83,000
590,76;174,00
591,34;103,00
591,91;107,00
592,49;275,00
593,06;216,00
593,64;171,00
594,21;153,00
594,79;121,00
595,36;125,00
595,94;126,00
596,51;197,00
597,09;122,00
597,66;155,00
598,24;156,00
598,81;169,00
599,38;-3,0000
599,96;135,00
600,53;108,00
601,11;103,00
601,68;80,000
602,26;78,000
602,83;179,00
603,41;114,00
603,98;149,00
604,56;143,00
605,13;25,000
605,70;73,000
606,28;144,00
606,85;141,00
607,43;39,000
608,00;117,00
608,57;76,000
609,15;61,000
609,72;135,00
610,30;72,000
610,87;172,00
611,44;147,00
612,02;86,000
612,59;-3,0000
613,16;76,000
613,74;169,00
614,31;40,000
614,89;107,00
615,46;83,000
616,03;133,00
616,61;116,00
617,18;168,00
617,75;1,0000
618,33;-44,000
618,90;-20,000
619,47;95,000
620,05;173,00
620,62;115,00
621,19;64,000
621,77;126,00
622,34;101,00
622,91;75,000
623,48;49,000
624,06;102,00
624,63;165,00
625,20;125,00
625,78;114,00
626,35;110,00
626,92;154,00
627,49;191,00
628,07;87,000
628,64;52,000
629,21;138,00
629,78;188,00
630,36;175,00
630,93;208,00
631,50;64,000
632,07;191,00
632,65;168,00
633,22;105,00
633,79;102,00
634,36;85,000
634,93;42,000
635,51;151,00
636,08;87,000
636,65;151,00
637,22;81,000
637,79;121,00
638,37;124,00
638,94;117,00
639,51;85,000
640,08;152,00
640,65;122,00
641,22;41,000
641,80;164,00
642,37;137,00
642,94;100,000
643,51;260,00
644,08;169,00
644,65;169,00
645,22;163,00
645,80;119,00
646,37;198,00
646,94;101,00
647,51;297,00
648,08;139,00
648,65;148,00
649,22;325,00
649,79;166,00
650,36;189,00
650,93;112,00
651,51;206,00
652,08;158,00
652,65;269,00
653,22;254,00
653,79;264,00
654,36;370,00
654,93;316,00
655,50;356,00
656,07;649,00
656,64;616,00
657,21;699,00
657,78;885,00
658,35;803,00
658,92;627,00
659,49;729,00
660,06;624,00
660,63;544,00
661,20;621,00
661,77;533,00
662,34;449,00
662,91;352,00
663,48;385,00
664,05;280,00
664,62;323,00
665,19;246,00
665,76;244,00
666,33;149,00
666,90;203,00
667,47;193,00
668,04;148,00
668,61;208,00
669,18;205,00
669,75;228,00
670,32;206,00
670,89;291,00
671,46;104,00
672,03;145,00
672,60;138,00
673,17;164,00
673,74;155,00
674,30;42,000
674,87;35,000
675,44;175,00
676,01;207,00
676,58;158,00
677,15;47,000
677,72;93,000
678,29;74,000
678,86;153,00
679,42;298,00
679,99;136,00
680,56;56,000
681,13;87,000
681,70;29,000
682,27;163,00
682,84;48,000
683,40;126,00
683,97;88,000
684,54;71,000
685,11;117,00
685,68;4,0000
686,25;-106,00
686,81;36,000
687,38;41,000
687,95;109,00
688,52;99,000
689,09;-36,000
689,65;112,00
690,22;86,000
690,79;71,000
691,36;172,00
691,92;94,000
692,49;118,00
693,06;-92,000
693,63;77,000
694,20;180,00
694,76;67,000
695,33;6,0000
695,90;56,000
696,47;105,00
697,03;46,000
697,60;69,000
698,17;126,00
698,73;79,000
699,30;75,000
699,87;15,000
700,44;128,00
701,00;57,000
701,57;87,000
702,14;36,000
702,70;91,000
703,27;67,000
703,84;141,00
704,40;120,00
704,97;-4,0000
705,54;4,0000
706,10;82,000
706,67;84,000
707,24;74,000
707,80;86,000
708,37;131,00
708,94;-1,0000
709,50;90,000
710,07;52,000
710,64;66,000
711,20;12,000
711,77;-93,000
712,33;-38,000
712,90;96,000
713,47;-14,000
714,03;39,000
714,60;96,000
715,16;100,000
715,73;50,000
716,30;172,00
716,86;171,00
717,43;22,000
717,99;158,00
718,56;62,000
719,12;61,000
719,69;-5,0000
720,26;158,00
720,82;58,000
721,39;105,00
721,95;45,000
722,52;17,000
723,08;64,000
723,65;133,00
724,21;95,000
724,78;81,000
725,34;149,00
725,91;95,000
726,47;-1,0000
727,04;53,000
727,60;70,000
728,17;82,000
728,73;125,00
729,30;153,00
729,86;85,000
730,43;-7,0000
730,99;-14,000
731,56;-5,0000
732,12;128,00
732,68;150,00
733,25;-30,000
733,81;71,000
734,38;72,000
734,94;87,000
735,51;170,00
736,07;82,000
736,63;73,000
737,20;154,00
737,76;-36,000
738,33;136,00
738,89;80,000
739,46;50,000
740,02;5,0000
740,58;21,000
741,15;14,000
741,71;107,00
742,27;15,000
742,84;49,000
743,40;98,000
743,97;96,000
744,53;175,00
745,09;265,00
745,66;51,000
746,22;194,00
746,78;159,00
747,35;209,00
747,91;183,00
748,47;226,00
749,04;157,00
749,60;203,00
750,16;260,00
750,72;173,00
751,29;228,00
751,85;-2,0000
752,41;149,00
752,98;61,000
753,54;143,00
754,10;52,000
754,66;1,0000
755,23;159,00
755,79;12,000
756,35;76,000
756,91;34,000
757,48;103,00
758,04;100,000
758,60;-6,0000
759,16;65,000
759,73;35,000
760,29;88,000
760,85;13,000
761,41;126,00
761,98;38,000
762,54;182,00
763,10;42,000
763,66;83,000
764,22;105,00
764,79;2,0000
765,35;63,000
765,91;85,000
766,47;-38,000
767,03;-38,000
767,59;-78,000
768,16;14,000
768,72;6,0000
769,28;40,000
769,84;102,00
770,40;-19,000
770,96;117,00
771,52;54,000
772,09;81,000
772,65;185,00
773,21;129,00
773,77;47,000
774,33;62,000
774,89;48,000
775,45;-21,000
776,01;100,000
776,57;53,000
777,13;164,00
777,70;291,00
778,26;208,00
778,82;261,00
779,38;230,00
779,94;230,00
780,50;226,00
781,06;231,00
781,62;127,00
782,18;234,00
782,74;66,000
783,30;-52,000
783,86;-69,000
784,42;-7,0000
784,98;79,000
785,54;18,000
786,10;131,00
786,66;-12,000
787,22;-12,000
787,78;52,000
788,34;123,00
788,90;77,000
789,46;104,00
790,02;10,0000
790,58;92,000
791,14;51,000
791,70;43,000
792,26;19,000
792,82;53,000
793,38;100,000
793,94;24,000
794,50;-11,000
795,06;-40,000
795,62;6,0000
796,17;18,000
796,73;17,000
797,29;65,000
797,85;43,000
798,41;-28,000
798,97;-12,000
799,53;-52,000
800,09;131,00
800,65;81,000
801,21;46,000
801,76;10,0000
802,32;-47,000
802,88;92,000
803,44;-69,000
804,00;38,000
804,56;51,000
805,12;-23,000
805,67;27,000
806,23;55,000
806,79;41,000
807,35;31,000
807,91;30,000
808,46;41,000
809,02;-83,000
809,58;-23,000
810,14;-98,000
810,70;-9,0000
811,26;73,000
811,81;-50,000
812,37;-36,000
812,93;-31,000
813,49;-21,000
814,04;24,000
814,60;15,000
815,16;23,000
815,72;94,000
816,27;-78,000
816,83;33,000
817,39;53,000
817,95;-1,0000
818,50;38,000
819,06;55,000
819,62;70,000
820,18;18,000
820,73;-1,0000
821,29;43,000
821,85;95,000
822,40;176,00
822,96;186,00
823,52;118,00
824,07;137,00
824,63;105,00
825,19;49,000
825,74;114,00
826,30;81,000
826,86;-52,000
827,41;-37,000
827,97;-6,0000
828,53;-68,000
829,08;64,000
829,64;-26,000
830,20;60,000
830,75;12,000
831,31;-16,000
831,86;85,000
832,42;-41,000
832,98;43,000
833,53;-66,000
834,09;23,000
834,64;11,000
835,20;93,000
835,76;56,000
836,31;-97,000
836,87;-32,000
837,42;-85,000
837,98;-31,000
838,53;24,000
839,09;22,000
839,64;21,000
840,20;37,000
840,75;84,000
841,31;-33,000
841,87;57,000
842,42;39,000
842,98;54,000
843,53;7,0000
844,09;33,000
844,64;-1,0000
845,20;72,000
845,75;86,000
846,31;39,000
846,86;11,000
847,41;50,000
847,97;79,000
848,52;47,000
849,08;-103,00
849,63;-52,000
850,19;-12,000
850,74;41,000
851,30;22,000
851,85;64,000
852,41;50,000
852,96;-19,000
853,51;44,000
854,07;-31,000
854,62;35,000
855,18;-35,000
855,73;39,000
856,28;-19,000
856,84;48,000
857,39;35,000
857,95;-84,000
858,50;-80,000
859,05;10,0000
859,61;-51,000
860,16;8,0000
860,71;44,000
861,27;-41,000
861,82;-12,000
862,37;39,000
862,93;42,000
863,48;120,00
864,03;-33,000
864,59;86,000
865,14;147,00
865,69;64,000
866,25;33,000
866,80;-38,000
867,35;17,000
867,90;1,0000
868,46;161,00
869,01;144,00
869,56;92,000
870,12;74,000
870,67;117,00
871,22;92,000
871,77;136,00
872,33;136,00
872,88;-69,000
873,43;67,000
873,98;14,000
874,54;-29,000
875,09;53,000
875,64;97,000
876,19;-84,000
876,74;38,000
877,30;-26,000
877,85;39,000
878,40;-49,000
878,95;-32,000
879,50;-40,000
880,06;59,000
880,61;-40,000
881,16;105,00
881,71;-14,000
882,26;7,0000
882,81;44,000
883,37;6,0000
883,92;-12,000
884,47;-43,000
885,02;-50,000
885,57;75,000
886,12;34,000
886,67;40,000
887,22;3,0000
887,78;-44,000
888,33;0
888,88;12,000
889,43;93,000
889,98;93,000
890,53;-42,000
891,08;62,000
891,63;56,000
892,18;-114,00
892,73;80,000
893,28;13,000
893,83;-74,000
894,38;-14,000
894,93;23,000
895,48;32,000
896,03;-37,000
896,59;175,00
897,14;1,0000
897,69;23,000
898,24;49,000
898,79;46,000
899,34;72,000
899,89;-17,000
900,44;47,000
900,99;-64,000
901,53;-64,000
902,08;17,000
902,63;-48,000
903,18;56,000
903,73;-21,000
904,28;-13,000
904,83;7,0000
905,38;-61,000
905,93;109,00
906,48;-10,0000
907,03;183,00
907,58;59,000
908,13;64,000
908,68;6,0000
909,23;32,000
909,78;-38,000
910,32;106,00
910,87;-42,000
911,42;34,000
911,97;22,000
912,52;-95,000
913,07;13,000
913,62;57,000
914,17;32,000
914,71;82,000
915,26;-9,0000
915,81;79,000
916,36;6,0000
916,91;40,000
917,46;50,000
918,00;55,000
918,55;18,000
919,10;-37,000
919,65;101,00
920,20;47,000
920,74;-76,000
921,29;-18,000
921,84;-1,0000
922,39;65,000
922,94;91,000
923,48;55,000
924,03;31,000
924,58;-185,00
925,13;22,000
925,67;56,000
926,22;27,000
926,77;27,000
927,32;-15,000
927,86;-4,0000
928,41;45,000
928,96;76,000
929,50;-74,000
930,05;24,000
930,60;18,000
931,15;124,00
931,69;-149,00
932,24;-24,000
932,79;-84,000
933,33;31,000
933,88;27,000
934,43;20,000
934,97;-49,000
935,52;-21,000
936,07;-16,000
936,61;-74,000
937,16;51,000
937,71;-25,000
938,25;-17,000
938,80;60,000
939,34;80,000
939,89;-7,0000
940,44;52,000
940,98;37,000
941,53;42,000
942,07;21,000
942,62;51,000
943,17;-56,000
943,71;87,000
944,26;-27,000
944,80;4,0000
945,35;-69,000
945,89;67,000
946,44;109,00
946,99;-166,00
947,53;-22,000
948,08;-27,000
948,62;-3,0000
949,17;146,00
949,71;44,000
950,26;-39,000
950,80;52,000
951,35;65,000
951,89;26,000
952,44;76,000
952,98;-26,000
953,53;-38,000
954,07;20,000
954,62;18,000
955,16;60,000
955,71;66,000
956,25;-19,000
956,79;-30,000
957,34;-18,000
957,88;83,000
958,43;-67,000
958,97;89,000
959,52;81,000
960,06;-3,0000
960,60;-26,000
961,15;-44,000
961,69;4,0000
962,24;90,000
962,78;134,00
963,32;95,000
963,87;21,000
964,41;-40,000
964,96;-84,000
965,50;30,000
966,04;27,000
966,59;21,000
967,13;-17,000
967,67;-50,000
968,22;19,000
968,76;16,000
969,30;-44,000
969,85;19,000
970,39;22,000
970,93;-24,000
971,47;162,00
972,02;23,000
972,56;25,000
973,10;-63,000
973,65;15,000
974,19;107,00
974,73;198,00
975,27;32,000
975,82;20,000
976,36;-16,000
976,90;51,000
977,44;-80,000
977,99;47,000
978,53;-55,000
979,07;15,000
979,61;31,000
980,16;67,000
980,70;-76,000
981,24;-16,000
981,78;66,000
982,32;58,000
982,87;-52,000
983,41;-4,0000
983,95;-105,00
984,49;21,000
985,03;-47,000
985,57;17,000
986,12;20,000
986,66;-74,000
987,20;40,000
987,74;6,0000
988,28;-15,000
988,82;-64,000
989,36;-26,000
989,91;-78,000
990,45;97,000
990,99;14,000
991,53;70,000
992,07;22,000
992,61;16,000
993,15;-19,000
993,69;86,000
994,23;-39,000
994,77;35,000
995,31;9,0000
995,86;-49,000
996,40;30,000
996,94;45,000
997,48;32,000
998,02;-51,000
998,56;37,000
999,10;-12,000
999,64;43,000
1000,18;-80,000
1000,72;29,000
1001,26;-21,000
1001,80;42,000
1002,34;44,000
1002,88;51,000
1003,42;41,000
1003,96;-132,00
1004,50;63,000
1005,04;-21,000
1005,58;-2,0000
1006,12;103,00
1006,66;-5,0000
1007,20;-15,000
1007,73;40,000
1008,27;49,000
1008,81;24,000
1009,35;70,000
1009,89;81,000
1010,43;-28,000
1010,97;-20,000
1011,51;28,000
1012,05;42,000
1012,59;6,0000
1013,13;-17,000
1013,66;1,0000
1014,20;-103,00
1014,74;28,000
1015,28;31,000
1015,82;24,000
1016,36;-33,000
1016,90;-6,0000
1017,43;2,0000
1017,97;-23,000
1018,51;-41,000
1019,05;30,000
1019,59;6,0000
1020,13;-58,000
1020,66;-3,0000
1021,20;2,0000
1021,74;-24,000
1022,28;-48,000
1022,81;-29,000
1023,35;56,000
1023,89;19,000
1024,43;9,0000
1024,97;22,000
1025,50;-68,000
1026,04;-77,000
1026,58;-34,000
1027,12;-25,000
1027,65;-8,0000
1028,19;19,000
1028,73;15,000
1029,26;106,00
1029,80;-1,0000
1030,34;-40,000
1030,88;-38,000
1031,41;-60,000
1031,95;95,000
1032,49;16,000
1033,02;33,000
1033,56;-25,000
1034,10;85,000
1034,63;6,0000
1035,17;6,0000
1035,71;50,000
1036,24;-14,000
1036,78;-78,000
1037,32;27,000
1037,85;-5,0000
1038,39;147,00
1038,92;-59,000
1039,46;61,000
1040,00;62,000
1040,53;-29,000
1041,07;64,000
1041,60;-11,000
1042,14;44,000
1042,68;4,0000
1043,21;-35,000
1043,75;18,000
1044,28;-49,000
1044,82;47,000
1045,35;53,000
1045,89;-129,00
1046,42;4,0000
1046,96;13,000
1047,49;15,000
1048,03;18,000
1048,57;-113,00
1049,10;9,0000
1049,64;-30,000
1050,17;-20,000
1050,70;22,000
1051,24;-30,000
1051,77;43,000
1052,31;-4,0000
1052,84;-47,000
1053,38;41,000
1053,91;-36,000
1054,45;5,0000
1054,98;30,000
1055,52;43,000
1056,05;-219,00
1056,59;36,000
1057,12;-17,000
1057,65;7,0000
1058,19;3,0000
1058,72;-95,000
1059,26;35,000
1059,79;-9,0000
1060,32;-17,000
1060,86;7,0000
1061,39;-69,000
1061,93;-39,000
1062,46;-22,000
1062,99;-14,000
1063,53;-48,000
1064,06;-77,000
1064,59;-34,000
1065,13;21,000
1065,66;-52,000
1066,19;-28,000
1066,73;-26,000
1067,26;15,000
1067,79;-62,000
1068,33;-48,000
1068,86;33,000
1069,39;-25,000
1069,92;-28,000
1070,46;-84,000
1070,99;-23,000
1071,52;45,000
1072,05;-43,000
1072,59;28,000
1073,12;105,00
1073,65;83,000
1074,18;-10,0000
1074,72;-31,000
1075,25;54,000
1075,78;34,000
1076,31;20,000
1076,85;-20,000
1077,38;50,000
1077,91;-55,000
1078,44;-88,000
1078,97;2,0000
1079,51;41,000
1080,04;72,000
1080,57;-68,000
1081,10;-124,00
1081,63;5,0000
1082,16;27,000
1082,70;-14,000
1083,23;87,000
1083,76;38,000
1084,29;-64,000
1084,82;12,000
1085,35;-7,0000
1085,88;42,000
1086,41;-8,0000
1086,94;76,000
1087,48;18,000
1088,01;0
1088,54;-34,000
1089,07;105,00
1089,60;-96,000
1090,13;-34,000
1090,66;-5,0000
1091,19;52,000
1091,72;16,000
1092,25;-122,00
1092,78;-55,000
1093,31;12,000
1093,84;45,000
1094,37;15,000
1094,90;-70,000
1095,43;-8,0000
1095,96;44,000
1096,49;-18,000
1097,02;12,000
1097,55;43,000
1098,08;-14,000
1098,61;-135,00
1099,14;56,000
1099,67;5,0000
1100,20;-15,000
