M- 7 del, 2
Integration time: 5000 ms
Average: 1 scans
Nr of pixels used for smoothing: 0
Data measured with spectrometer serial number: 0604021S1
Wave   ;Sample
[nm]   ;[counts]
173,70;21,000
174,30;-60,000
174,90;-8,0000
175,50;74,000
176,10;37,000
176,70;-18,000
177,30;-77,000
177,90;16,000
178,50;28,000
179,10;68,000
179,70;41,000
180,30;-4,0000
180,89;-10,0000
181,49;11,000
182,09;3,0000
182,69;-57,000
183,29;-43,000
183,89;30,000
184,49;16,000
185,09;73,000
185,69;104,00
186,29;42,000
186,89;40,000
187,48;-3,0000
188,08;-64,000
188,68;13,000
189,28;-53,000
189,88;67,000
190,48;11,000
191,08;86,000
191,68;68,000
192,28;49,000
192,87;30,000
193,47;-3,0000
194,07;-48,000
194,67;18,000
195,27;-27,000
195,87;45,000
196,47;-51,000
197,06;-23,000
197,66;-16,000
198,26;50,000
198,86;-54,000
199,46;47,000
200,06;56,000
200,66;-71,000
201,25;48,000
201,85;7,0000
202,45;-79,000
203,05;46,000
203,65;-42,000
204,24;22,000
204,84;-3,0000
205,44;-83,000
206,04;-28,000
206,64;42,000
207,24;-13,000
207,83;-37,000
208,43;51,000
209,03;-33,000
209,63;73,000
210,22;121,00
210,82;-28,000
211,42;-42,000
212,02;-69,000
212,62;-44,000
213,21;-37,000
213,81;-19,000
214,41;-41,000
215,01;-29,000
215,60;21,000
216,20;48,000
216,80;59,000
217,40;5,0000
218,00;94,000
218,59;-74,000
219,19;34,000
219,79;16,000
220,38;-50,000
220,98;-54,000
221,58;43,000
222,18;41,000
222,77;95,000
223,37;6,0000
223,97;-94,000
224,57;44,000
225,16;68,000
225,76;71,000
226,36;-21,000
226,95;104,00
227,55;-8,0000
228,15;55,000
228,75;-48,000
229,34;-167,00
229,94;88,000
230,54;88,000
231,13;16,000
231,73;-13,000
232,33;-12,000
232,92;35,000
233,52;54,000
234,12;5,0000
234,71;67,000
235,31;-21,000
235,91;32,000
236,50;77,000
237,10;74,000
237,70;-413,00
238,29;88,000
238,89;-52,000
239,49;-68,000
240,08;-78,000
240,68;-18,000
241,28;56,000
241,87;74,000
242,47;-5,0000
243,06;19,000
243,66;22,000
244,26;32,000
244,85;-35,000
245,45;-3,0000
246,05;94,000
246,64;10,0000
247,24;-19,000
247,83;68,000
248,43;40,000
249,03;10,0000
249,62;-70,000
250,22;-10,0000
250,81;70,000
251,41;-41,000
252,01;-40,000
252,60;-57,000
253,20;23,000
253,79;5,0000
254,39;73,000
254,98;68,000
255,58;30,000
256,18;73,000
256,77;-37,000
257,37;-12,000
257,96;33,000
258,56;57,000
259,15;59,000
259,75;36,000
260,34;-5,0000
260,94;-48,000
261,53;51,000
262,13;52,000
262,73;81,000
263,32;12,000
263,92;-14,000
264,51;-3,0000
265,11;67,000
265,70;-46,000
266,30;28,000
266,89;40,000
267,49;50,000
268,08;-33,000
268,68;-11,000
269,27;13,000
269,87;-10,0000
270,46;-13,000
271,06;57,000
271,65;9,0000
272,25;23,000
272,84;18,000
273,44;23,000
274,03;0
274,62;51,000
275,22;66,000
275,81;15,000
276,41;7,0000
277,00;21,000
277,60;11,000
278,19;-93,000
278,79;-3,0000
279,38;49,000
279,98;8,0000
280,57;-36,000
281,16;10,0000
281,76;42,000
282,35;47,000
282,95;10,0000
283,54;3,0000
284,14;-65,000
284,73;16,000
285,32;-59,000
285,92;-1,0000
286,51;78,000
287,11;-108,00
287,70;29,000
288,29;-13,000
288,89;29,000
289,48;-32,000
290,08;-73,000
290,67;54,000
291,26;-1,0000
291,86;57,000
292,45;25,000
293,04;34,000
293,64;19,000
294,23;-3,0000
294,83;-19,000
295,42;-10,0000
296,01;-64,000
296,61;23,000
297,20;21,000
297,79;29,000
298,39;50,000
298,98;117,00
299,57;55,000
300,17;-56,000
300,76;-10,0000
301,35;-47,000
301,95;-12,000
302,54;-8,0000
303,13;72,000
303,73;-21,000
304,32;4,0000
304,91;53,000
305,51;112,00
306,10;-36,000
306,69;-30,000
307,28;163,00
307,88;19,000
308,47;-6,0000
309,06;12,000
309,66;71,000
310,25;-78,000
310,84;61,000
311,43;-34,000
312,03;143,00
312,62;196,00
313,21;269,00
313,81;166,00
314,40;392,00
314,99;581,00
315,58;948,00
316,18;985,00
316,77;1005,0
317,36;1036,0
317,95;845,00
318,54;665,00
319,14;568,00
319,73;167,00
320,32;40,000
320,91;57,000
321,51;30,000
322,10;6,0000
322,69;28,000
323,28;61,000
323,87;-60,000
324,47;32,000
325,06;28,000
325,65;-33,000
326,24;9,0000
326,83;14,000
327,43;31,000
328,02;191,00
328,61;185,00
329,20;28,000
329,79;78,000
330,39;51,000
330,98;49,000
331,57;163,00
332,16;197,00
332,75;156,00
333,34;259,00
333,93;323,00
334,53;330,00
335,12;671,00
335,71;1999,0
336,30;4659,0
336,89;7149,0
337,48;7352,0
338,07;7435,0
338,67;7430,0
339,26;7090,0
339,85;6096,0
340,44;4001,0
341,03;631,00
341,62;94,000
342,21;100,000
342,80;172,00
343,39;38,000
343,99;-12,000
344,58;17,000
345,17;107,00
345,76;79,000
346,35;22,000
346,94;48,000
347,53;32,000
348,12;196,00
348,71;89,000
349,30;178,00
349,89;266,00
350,48;291,00
351,07;357,00
351,66;546,00
352,26;1015,0
352,85;1949,0
353,44;2592,0
354,03;2666,0
354,62;2895,0
355,21;3101,0
355,80;3828,0
356,39;5600,0
356,98;8884,0
357,57;9929,0
358,16;9974,0
358,75;10230
359,34;9722,0
359,93;9082,0
360,52;7352,0
361,11;3899,0
361,70;320,00
362,29;164,00
362,88;120,00
363,47;167,00
364,06;41,000
364,65;132,00
365,24;199,00
365,83;122,00
366,42;234,00
367,01;311,00
367,60;262,00
368,19;325,00
368,78;341,00
369,37;280,00
369,95;657,00
370,54;864,00
371,13;1023,0
371,72;939,00
372,31;1041,0
372,90;1104,0
373,49;1297,0
374,08;1702,0
374,67;2635,0
375,26;3562,0
375,85;3639,0
376,44;3822,0
377,03;3789,0
377,61;3727,0
378,20;3387,0
378,79;3019,0
379,38;3070,0
379,97;5076,0
380,56;5544,0
381,15;5669,0
381,74;5743,0
382,33;5420,0
382,91;4706,0
383,50;3654,0
384,09;1193,0
384,68;204,00
385,27;131,00
385,86;138,00
386,45;151,00
387,03;87,000
387,62;178,00
388,21;193,00
388,80;301,00
389,39;287,00
389,98;259,00
390,57;228,00
391,15;199,00
391,74;338,00
392,33;296,00
392,92;448,00
393,51;708,00
394,09;720,00
394,68;706,00
395,27;795,00
395,86;845,00
396,45;804,00
397,03;704,00
397,62;641,00
398,21;797,00
398,80;1259,0
399,39;2002,0
399,97;2149,0
400,56;2163,0
401,15;2108,0
401,74;2184,0
402,32;1949,0
402,91;1499,0
403,50;892,00
404,09;861,00
404,67;1289,0
405,26;2126,0
405,85;2440,0
406,44;2495,0
407,02;2638,0
407,61;2287,0
408,20;2153,0
408,78;1913,0
409,37;1113,0
409,96;517,00
410,55;373,00
411,13;333,00
411,72;291,00
412,31;263,00
412,89;197,00
413,48;184,00
414,07;337,00
414,65;343,00
415,24;281,00
415,83;317,00
416,42;261,00
417,00;274,00
417,59;67,000
418,18;305,00
418,76;443,00
419,35;691,00
419,94;695,00
420,52;703,00
421,11;800,00
421,69;834,00
422,28;794,00
422,87;525,00
423,45;458,00
424,04;136,00
424,63;346,00
425,21;545,00
425,80;805,00
426,38;1213,0
426,97;1355,0
427,56;1374,0
428,14;1441,0
428,73;1381,0
429,31;1242,0
429,90;925,00
430,49;477,00
431,07;247,00
431,66;224,00
432,24;274,00
432,83;337,00
433,42;562,00
434,00;890,00
434,59;986,00
435,17;1039,0
435,76;910,00
436,34;940,00
436,93;883,00
437,51;665,00
438,10;286,00
438,69;115,00
439,27;101,00
439,86;89,000
440,44;111,00
441,03;158,00
441,61;114,00
442,20;45,000
442,78;142,00
443,37;191,00
443,95;219,00
444,54;72,000
445,12;62,000
445,71;74,000
446,29;-31,000
446,88;39,000
447,46;154,00
448,05;250,00
448,63;432,00
449,22;298,00
449,80;265,00
450,39;240,00
450,97;222,00
451,56;108,00
452,14;145,00
452,72;107,00
453,31;22,000
453,89;134,00
454,48;25,000
455,06;70,000
455,65;71,000
456,23;317,00
456,81;391,00
457,40;381,00
457,98;316,00
458,57;398,00
459,15;378,00
459,74;287,00
460,32;189,00
460,90;136,00
461,49;14,000
462,07;41,000
462,66;25,000
463,24;77,000
463,82;130,00
464,41;206,00
464,99;225,00
465,57;170,00
466,16;292,00
466,74;345,00
467,33;257,00
467,91;251,00
468,49;222,00
469,08;201,00
469,66;82,000
470,24;175,00
470,83;53,000
471,41;4,0000
471,99;30,000
472,58;142,00
473,16;135,00
473,74;86,000
474,33;70,000
474,91;79,000
475,49;42,000
476,08;-28,000
476,66;74,000
477,24;79,000
477,82;18,000
478,41;86,000
478,99;141,00
479,57;-13,000
480,16;11,000
480,74;152,00
481,32;123,00
481,90;-10,0000
482,49;206,00
483,07;134,00
483,65;22,000
484,23;153,00
484,82;100,000
485,40;48,000
485,98;-15,000
486,56;26,000
487,15;35,000
487,73;-12,000
488,31;-21,000
488,89;0
489,47;25,000
490,06;2,0000
490,64;53,000
491,22;91,000
491,80;35,000
492,39;112,00
492,97;151,00
493,55;125,00
494,13;85,000
494,71;-10,0000
495,29;5,0000
495,88;21,000
496,46;62,000
497,04;-43,000
497,62;55,000
498,20;31,000
498,78;-18,000
499,37;-9,0000
499,95;-100,000
500,53;-92,000
501,11;43,000
501,69;108,00
502,27;64,000
502,85;31,000
503,44;25,000
504,02;9,0000
504,60;68,000
505,18;46,000
505,76;141,00
506,34;70,000
506,92;49,000
507,50;1,0000
508,08;74,000
508,67;39,000
509,25;11,000
509,83;23,000
510,41;74,000
510,99;101,00
511,57;-7,0000
512,15;40,000
512,73;7,0000
513,31;-14,000
513,89;108,00
514,47;93,000
515,05;64,000
515,63;14,000
516,21;65,000
516,79;56,000
517,38;125,00
517,96;52,000
518,54;62,000
519,12;-56,000
519,70;-24,000
520,28;81,000
520,86;-11,000
521,44;66,000
522,02;-31,000
522,60;-25,000
523,18;126,00
523,76;20,000
524,34;2,0000
524,92;41,000
525,50;-26,000
526,08;-74,000
526,66;-38,000
527,24;-31,000
527,82;9,0000
528,39;23,000
528,97;3,0000
529,55;51,000
530,13;-22,000
530,71;129,00
531,29;74,000
531,87;38,000
532,45;-31,000
533,03;98,000
533,61;38,000
534,19;90,000
534,77;116,00
535,35;117,00
535,93;-7,0000
536,51;50,000
537,08;72,000
537,66;-44,000
538,24;85,000
538,82;59,000
539,40;46,000
539,98;32,000
540,56;89,000
541,14;-26,000
541,72;47,000
542,29;73,000
542,87;61,000
543,45;99,000
544,03;-76,000
544,61;50,000
545,19;-171,00
545,77;91,000
546,34;-55,000
546,92;88,000
547,50;6,0000
548,08;44,000
548,66;79,000
549,23;-70,000
549,81;93,000
550,39;4,0000
550,97;38,000
551,55;-15,000
552,13;64,000
552,70;50,000
553,28;30,000
553,86;-25,000
554,44;24,000
555,01;128,00
555,59;66,000
556,17;30,000
556,75;-67,000
557,33;-14,000
557,90;79,000
558,48;43,000
559,06;-13,000
559,64;82,000
560,21;-66,000
560,79;84,000
561,37;-35,000
561,95;-56,000
562,52;-16,000
563,10;-20,000
563,68;-62,000
564,25;25,000
564,83;26,000
565,41;-50,000
565,99;40,000
566,56;-21,000
567,14;93,000
567,72;80,000
568,29;84,000
568,87;44,000
569,45;53,000
570,02;21,000
570,60;30,000
571,18;26,000
571,75;23,000
572,33;24,000
572,91;68,000
573,48;-3,0000
574,06;110,00
574,64;43,000
575,21;105,00
575,79;2,0000
576,37;131,00
576,94;41,000
577,52;122,00
578,09;53,000
578,67;38,000
579,25;86,000
579,82;-9,0000
580,40;-26,000
580,97;71,000
581,55;35,000
582,13;96,000
582,70;-30,000
583,28;-11,000
583,85;-51,000
584,43;182,00
585,01;-62,000
585,58;63,000
586,16;23,000
586,73;96,000
587,31;-13,000
587,88;-1,0000
588,46;87,000
589,03;8,0000
589,61;-14,000
590,18;137,00
590,76;52,000
591,34;78,000
591,91;87,000
592,49;49,000
593,06;62,000
593,64;30,000
594,21;-7,0000
594,79;49,000
595,36;59,000
595,94;91,000
596,51;2,0000
597,09;22,000
597,66;47,000
598,24;88,000
598,81;24,000
599,38;27,000
599,96;107,00
600,53;205,00
601,11;105,00
601,68;-23,000
602,26;-22,000
602,83;34,000
603,41;61,000
603,98;49,000
604,56;83,000
605,13;29,000
605,70;55,000
606,28;14,000
606,85;75,000
607,43;24,000
608,00;60,000
608,57;17,000
609,15;55,000
609,72;62,000
610,30;46,000
610,87;7,0000
611,44;-106,00
612,02;31,000
612,59;48,000
613,16;-6,0000
613,74;-28,000
614,31;63,000
614,89;-112,00
615,46;-64,000
616,03;40,000
616,61;98,000
617,18;44,000
617,75;32,000
618,33;143,00
618,90;-60,000
619,47;10,0000
620,05;-11,000
620,62;24,000
621,19;1,0000
621,77;39,000
622,34;26,000
622,91;58,000
623,48;67,000
624,06;151,00
624,63;90,000
625,20;14,000
625,78;-46,000
626,35;-26,000
626,92;1,0000
627,49;-28,000
628,07;-13,000
628,64;-74,000
629,21;15,000
629,78;14,000
630,36;-90,000
630,93;4,0000
631,50;88,000
632,07;7,0000
632,65;59,000
633,22;61,000
633,79;40,000
634,36;11,000
634,93;39,000
635,51;93,000
636,08;29,000
636,65;23,000
637,22;49,000
637,79;55,000
638,37;130,00
638,94;31,000
639,51;49,000
640,08;26,000
640,65;10,0000
641,22;79,000
641,80;84,000
642,37;137,00
642,94;-105,00
643,51;45,000
644,08;-32,000
644,65;50,000
645,22;65,000
645,80;101,00
646,37;26,000
646,94;52,000
647,51;103,00
648,08;227,00
648,65;98,000
649,22;88,000
649,79;-36,000
650,36;33,000
650,93;65,000
651,51;355,00
652,08;-59,000
652,65;84,000
653,22;62,000
653,79;15,000
654,36;91,000
654,93;208,00
655,50;244,00
656,07;149,00
656,64;80,000
657,21;88,000
657,78;158,00
658,35;24,000
658,92;152,00
659,49;-20,000
660,06;193,00
660,63;125,00
661,20;154,00
661,77;154,00
662,34;136,00
662,91;123,00
663,48;123,00
664,05;121,00
664,62;148,00
665,19;163,00
665,76;63,000
666,33;85,000
666,90;109,00
667,47;71,000
668,04;131,00
668,61;199,00
669,18;210,00
669,75;122,00
670,32;120,00
670,89;212,00
671,46;169,00
672,03;105,00
672,60;168,00
673,17;-27,000
673,74;167,00
674,30;117,00
674,87;220,00
675,44;112,00
676,01;147,00
676,58;107,00
677,15;89,000
677,72;78,000
678,29;96,000
678,86;35,000
679,42;164,00
679,99;178,00
680,56;97,000
681,13;46,000
681,70;71,000
682,27;171,00
682,84;25,000
683,40;37,000
683,97;19,000
684,54;63,000
685,11;86,000
685,68;136,00
686,25;23,000
686,81;83,000
687,38;6,0000
687,95;121,00
688,52;1,0000
689,09;56,000
689,65;79,000
690,22;17,000
690,79;-8,0000
691,36;35,000
691,92;81,000
692,49;-8,0000
693,06;-21,000
693,63;44,000
694,20;34,000
694,76;111,00
695,33;52,000
695,90;18,000
696,47;89,000
697,03;-94,000
697,60;20,000
698,17;-18,000
698,73;46,000
699,30;50,000
699,87;-81,000
700,44;42,000
701,00;-33,000
701,57;43,000
702,14;94,000
702,70;9,0000
703,27;-43,000
703,84;-52,000
704,40;1,0000
704,97;48,000
705,54;-75,000
706,10;41,000
706,67;-9,0000
707,24;37,000
707,80;49,000
708,37;62,000
708,94;-67,000
709,50;70,000
710,07;77,000
710,64;-12,000
711,20;55,000
711,77;40,000
712,33;-46,000
712,90;-122,00
713,47;-24,000
714,03;58,000
714,60;46,000
715,16;42,000
715,73;-20,000
716,30;111,00
716,86;9,0000
717,43;10,0000
717,99;98,000
718,56;57,000
719,12;18,000
719,69;66,000
720,26;15,000
720,82;151,00
721,39;147,00
721,95;-75,000
722,52;29,000
723,08;48,000
723,65;73,000
724,21;55,000
724,78;72,000
725,34;-13,000
725,91;102,00
726,47;96,000
727,04;19,000
727,60;90,000
728,17;42,000
728,73;-31,000
729,30;132,00
729,86;70,000
730,43;60,000
730,99;-49,000
731,56;51,000
732,12;132,00
732,68;56,000
733,25;120,00
733,81;112,00
734,38;55,000
734,94;117,00
735,51;41,000
736,07;192,00
736,63;115,00
737,20;133,00
737,76;46,000
738,33;191,00
738,89;103,00
739,46;87,000
740,02;61,000
740,58;56,000
741,15;20,000
741,71;56,000
742,27;68,000
742,84;44,000
743,40;10,0000
743,97;95,000
744,53;66,000
745,09;45,000
745,66;15,000
746,22;73,000
746,78;105,00
747,35;90,000
747,91;102,00
748,47;155,00
749,04;148,00
749,60;110,00
750,16;122,00
750,72;195,00
751,29;12,000
751,85;167,00
752,41;89,000
752,98;133,00
753,54;6,0000
754,10;-18,000
754,66;61,000
755,23;46,000
755,79;96,000
756,35;-34,000
756,91;28,000
757,48;59,000
758,04;97,000
758,60;190,00
759,16;118,00
759,73;172,00
760,29;117,00
760,85;6,0000
761,41;-17,000
761,98;172,00
762,54;70,000
763,10;19,000
763,66;46,000
764,22;108,00
764,79;41,000
765,35;33,000
765,91;101,00
766,47;144,00
767,03;-28,000
767,59;-38,000
768,16;-60,000
768,72;18,000
769,28;46,000
769,84;80,000
770,40;92,000
770,96;54,000
771,52;103,00
772,09;80,000
772,65;118,00
773,21;105,00
773,77;120,00
774,33;105,00
774,89;37,000
775,45;160,00
776,01;123,00
776,57;121,00
777,13;96,000
777,70;81,000
778,26;30,000
778,82;13,000
779,38;45,000
779,94;-50,000
780,50;16,000
781,06;-23,000
781,62;-1,0000
782,18;-187,00
782,74;-15,000
783,30;61,000
783,86;-4,0000
784,42;2,0000
784,98;72,000
785,54;-39,000
786,10;4,0000
786,66;84,000
787,22;15,000
787,78;-35,000
788,34;51,000
788,90;142,00
789,46;-64,000
790,02;61,000
790,58;-8,0000
791,14;55,000
791,70;20,000
792,26;-83,000
792,82;24,000
793,38;387,00
793,94;18,000
794,50;44,000
795,06;-70,000
795,62;50,000
796,17;-57,000
796,73;-37,000
797,29;46,000
797,85;-2,0000
798,41;25,000
798,97;56,000
799,53;2,0000
800,09;53,000
800,65;-102,00
801,21;98,000
801,76;48,000
802,32;-58,000
802,88;-88,000
803,44;29,000
804,00;152,00
804,56;22,000
805,12;112,00
805,67;12,000
806,23;18,000
806,79;11,000
807,35;-66,000
807,91;-2,0000
808,46;3,0000
809,02;26,000
809,58;-31,000
810,14;-35,000
810,70;90,000
811,26;6,0000
811,81;67,000
812,37;34,000
812,93;17,000
813,49;70,000
814,04;-71,000
814,60;-43,000
815,16;64,000
815,72;24,000
816,27;-4,0000
816,83;36,000
817,39;30,000
817,95;-50,000
818,50;-33,000
819,06;-23,000
819,62;81,000
820,18;-34,000
820,73;-92,000
821,29;-3,0000
821,85;72,000
822,40;70,000
822,96;118,00
823,52;-54,000
824,07;5,0000
824,63;-24,000
825,19;-21,000
825,74;85,000
826,30;9,0000
826,86;13,000
827,41;-32,000
827,97;37,000
828,53;59,000
829,08;15,000
829,64;74,000
830,20;-30,000
830,75;44,000
831,31;106,00
831,86;57,000
832,42;15,000
832,98;69,000
833,53;-24,000
834,09;-54,000
834,64;73,000
835,20;30,000
835,76;6,0000
836,31;68,000
836,87;199,00
837,42;68,000
837,98;-15,000
838,53;-13,000
839,09;-165,00
839,64;69,000
840,20;-21,000
840,75;-62,000
841,31;-5,0000
841,87;-31,000
842,42;97,000
842,98;-57,000
843,53;43,000
844,09;29,000
844,64;57,000
845,20;15,000
845,75;74,000
846,31;49,000
846,86;-5,0000
847,41;82,000
847,97;-58,000
848,52;208,00
849,08;97,000
849,63;12,000
850,19;48,000
850,74;54,000
851,30;12,000
851,85;89,000
852,41;-26,000
852,96;98,000
853,51;40,000
854,07;-8,0000
854,62;5,0000
855,18;-42,000
855,73;-4,0000
856,28;53,000
856,84;-67,000
857,39;23,000
857,95;55,000
858,50;14,000
859,05;110,00
859,61;61,000
860,16;-77,000
860,71;54,000
861,27;-79,000
861,82;65,000
862,37;-21,000
862,93;146,00
863,48;39,000
864,03;93,000
864,59;-36,000
865,14;-51,000
865,69;18,000
866,25;68,000
866,80;41,000
867,35;-23,000
867,90;139,00
868,46;67,000
869,01;-1,0000
869,56;68,000
870,12;39,000
870,67;-8,0000
871,22;116,00
871,77;74,000
872,33;52,000
872,88;110,00
873,43;33,000
873,98;75,000
874,54;46,000
875,09;116,00
875,64;-45,000
876,19;98,000
876,74;-10,0000
877,30;19,000
877,85;82,000
878,40;12,000
878,95;21,000
879,50;33,000
880,06;3,0000
880,61;-59,000
881,16;132,00
881,71;113,00
882,26;-41,000
882,81;1,0000
883,37;-11,000
883,92;35,000
884,47;39,000
885,02;15,000
885,57;-3,0000
886,12;63,000
886,67;16,000
887,22;49,000
887,78;109,00
888,33;16,000
888,88;-13,000
889,43;12,000
889,98;41,000
890,53;117,00
891,08;19,000
891,63;98,000
892,18;64,000
892,73;31,000
893,28;-54,000
893,83;-32,000
894,38;-24,000
894,93;-28,000
895,48;53,000
896,03;7,0000
896,59;60,000
897,14;-7,0000
897,69;15,000
898,24;-37,000
898,79;-12,000
899,34;133,00
899,89;104,00
900,44;10,0000
900,99;-9,0000
901,53;71,000
902,08;81,000
902,63;-69,000
903,18;103,00
903,73;64,000
904,28;88,000
904,83;49,000
905,38;-65,000
905,93;7,0000
906,48;-53,000
907,03;-10,0000
907,58;-17,000
908,13;18,000
908,68;69,000
909,23;50,000
909,78;4,0000
910,32;-24,000
910,87;-14,000
911,42;-8,0000
911,97;-43,000
912,52;134,00
913,07;102,00
913,62;-23,000
914,17;-8,0000
914,71;3,0000
915,26;46,000
915,81;49,000
916,36;21,000
916,91;5,0000
917,46;16,000
918,00;-3,0000
918,55;36,000
919,10;40,000
919,65;96,000
920,20;17,000
920,74;-1,0000
921,29;-153,00
921,84;24,000
922,39;-12,000
922,94;46,000
923,48;-60,000
924,03;25,000
924,58;39,000
925,13;7,0000
925,67;-7,0000
926,22;47,000
926,77;-6,0000
927,32;-73,000
927,86;51,000
928,41;-7,0000
928,96;12,000
929,50;6,0000
930,05;52,000
930,60;93,000
931,15;-4,0000
931,69;4,0000
932,24;120,00
932,79;31,000
933,33;31,000
933,88;120,00
934,43;-13,000
934,97;-35,000
935,52;57,000
936,07;-166,00
936,61;-6,0000
937,16;8,0000
937,71;36,000
938,25;-40,000
938,80;35,000
939,34;32,000
939,89;-25,000
940,44;63,000
940,98;26,000
941,53;-1,0000
942,07;84,000
942,62;-17,000
943,17;-35,000
943,71;-13,000
944,26;11,000
944,80;129,00
945,35;-46,000
945,89;-17,000
946,44;13,000
946,99;57,000
947,53;77,000
948,08;112,00
948,62;7,0000
949,17;-17,000
949,71;61,000
950,26;-111,00
950,80;-10,0000
951,35;-22,000
951,89;-25,000
952,44;113,00
952,98;-32,000
953,53;-37,000
954,07;15,000
954,62;38,000
955,16;64,000
955,71;-27,000
956,25;-29,000
956,79;-22,000
957,34;90,000
957,88;-60,000
958,43;49,000
958,97;-18,000
959,52;-64,000
960,06;72,000
960,60;8,0000
961,15;19,000
961,69;3,0000
962,24;-297,00
962,78;-82,000
963,32;-12,000
963,87;53,000
964,41;108,00
964,96;-28,000
965,50;27,000
966,04;-54,000
966,59;-70,000
967,13;-4,0000
967,67;-4,0000
968,22;53,000
968,76;-14,000
969,30;14,000
969,85;-16,000
970,39;108,00
970,93;-9,0000
971,47;-52,000
972,02;-5,0000
972,56;43,000
973,10;-116,00
973,65;-85,000
974,19;-57,000
974,73;29,000
975,27;39,000
975,82;46,000
976,36;13,000
976,90;-51,000
977,44;102,00
977,99;8,0000
978,53;-4,0000
979,07;51,000
979,61;56,000
980,16;-30,000
980,70;40,000
981,24;80,000
981,78;-53,000
982,32;13,000
982,87;150,00
983,41;-11,000
983,95;7,0000
984,49;-26,000
985,03;29,000
985,57;-91,000
986,12;-39,000
986,66;135,00
987,20;59,000
987,74;88,000
988,28;-56,000
988,82;-38,000
989,36;13,000
989,91;9,0000
990,45;-16,000
990,99;-13,000
991,53;41,000
992,07;32,000
992,61;-51,000
993,15;10,0000
993,69;-1,0000
994,23;-83,000
994,77;140,00
995,31;-48,000
995,86;-5,0000
996,40;111,00
996,94;28,000
997,48;-50,000
998,02;-24,000
998,56;23,000
999,10;10,0000
999,64;54,000
1000,18;30,000
1000,72;53,000
1001,26;-29,000
1001,80;76,000
1002,34;72,000
1002,88;-50,000
1003,42;35,000
1003,96;28,000
1004,50;-40,000
1005,04;-30,000
1005,58;-31,000
1006,12;41,000
1006,66;21,000
1007,20;56,000
1007,73;110,00
1008,27;-40,000
1008,81;52,000
1009,35;6,0000
1009,89;32,000
1010,43;70,000
1010,97;6,0000
1011,51;-47,000
1012,05;-65,000
1012,59;102,00
1013,13;30,000
1013,66;7,0000
1014,20;-30,000
1014,74;27,000
1015,28;91,000
1015,82;13,000
1016,36;-7,0000
1016,90;-41,000
1017,43;-26,000
1017,97;-118,00
1018,51;47,000
1019,05;-10,0000
1019,59;105,00
1020,13;32,000
1020,66;-137,00
1021,20;-64,000
1021,74;1,0000
1022,28;-36,000
1022,81;22,000
1023,35;-23,000
1023,89;2,0000
1024,43;52,000
1024,97;18,000
1025,50;9,0000
1026,04;59,000
1026,58;-4,0000
1027,12;-180,00
1027,65;90,000
1028,19;90,000
1028,73;-3,0000
1029,26;50,000
1029,80;90,000
1030,34;97,000
1030,88;55,000
1031,41;-42,000
1031,95;104,00
1032,49;33,000
1033,02;53,000
1033,56;21,000
1034,10;111,00
1034,63;37,000
1035,17;10,0000
1035,71;-7,0000
1036,24;97,000
1036,78;64,000
1037,32;33,000
1037,85;21,000
1038,39;86,000
1038,92;105,00
1039,46;-24,000
1040,00;97,000
1040,53;69,000
1041,07;20,000
1041,60;-55,000
1042,14;-15,000
1042,68;70,000
1043,21;27,000
1043,75;-122,00
1044,28;9,0000
1044,82;62,000
1045,35;-10,0000
1045,89;41,000
1046,42;-28,000
1046,96;-18,000
1047,49;-16,000
1048,03;92,000
1048,57;-57,000
1049,10;-61,000
1049,64;-318,00
1050,17;34,000
1050,70;-22,000
1051,24;43,000
1051,77;26,000
1052,31;28,000
1052,84;-41,000
1053,38;-21,000
1053,91;-6,0000
1054,45;48,000
1054,98;-45,000
1055,52;63,000
1056,05;133,00
1056,59;-49,000
1057,12;-104,00
1057,65;-89,000
1058,19;-47,000
1058,72;55,000
1059,26;96,000
1059,79;68,000
1060,32;42,000
1060,86;1,0000
1061,39;70,000
1061,93;5,0000
1062,46;8,0000
1062,99;-6,0000
1063,53;-20,000
1064,06;41,000
1064,59;21,000
1065,13;62,000
1065,66;22,000
1066,19;0
1066,73;-34,000
1067,26;7,0000
1067,79;14,000
1068,33;-28,000
1068,86;55,000
1069,39;-25,000
1069,92;44,000
1070,46;91,000
1070,99;-96,000
1071,52;47,000
1072,05;0
1072,59;85,000
1073,12;51,000
1073,65;18,000
1074,18;-5,0000
1074,72;-3,0000
1075,25;24,000
1075,78;55,000
1076,31;-53,000
1076,85;53,000
1077,38;-12,000
1077,91;7,0000
1078,44;18,000
1078,97;-102,00
1079,51;-60,000
1080,04;-69,000
1080,57;-44,000
1081,10;108,00
1081,63;35,000
1082,16;12,000
1082,70;-22,000
1083,23;-139,00
1083,76;-50,000
1084,29;70,000
1084,82;27,000
1085,35;-55,000
1085,88;-14,000
1086,41;78,000
1086,94;35,000
1087,48;7,0000
1088,01;-42,000
1088,54;57,000
1089,07;22,000
1089,60;-89,000
1090,13;56,000
1090,66;-15,000
1091,19;-84,000
1091,72;16,000
1092,25;18,000
1092,78;165,00
1093,31;-52,000
1093,84;54,000
1094,37;-19,000
1094,90;-44,000
1095,43;-19,000
1095,96;-10,0000
1096,49;26,000
1097,02;-23,000
1097,55;-26,000
1098,08;6,0000
1098,61;-45,000
1099,14;81,000
1099,67;83,000
1100,20;41,000
