M- 33 del, 2
Integration time: 5000 ms
Average: 1 scans
Nr of pixels used for smoothing: 0
Data measured with spectrometer serial number: 0604021S1
Wave   ;Sample
[nm]   ;[counts]
173,70;5,0000
174,30;-42,000
174,90;-13,000
175,50;-15,000
176,10;-5,0000
176,70;134,00
177,30;-21,000
177,90;-42,000
178,50;-97,000
179,10;0
179,70;-8,0000
180,30;45,000
180,89;-124,00
181,49;-24,000
182,09;-37,000
182,69;1,0000
183,29;131,00
183,89;103,00
184,49;9,0000
185,09;113,00
185,69;4,0000
186,29;-74,000
186,89;4,0000
187,48;63,000
188,08;23,000
188,68;7,0000
189,28;-11,000
189,88;19,000
190,48;60,000
191,08;55,000
191,68;-60,000
192,28;62,000
192,87;-76,000
193,47;19,000
194,07;-18,000
194,67;-24,000
195,27;-23,000
195,87;20,000
196,47;34,000
197,06;58,000
197,66;1,0000
198,26;30,000
198,86;33,000
199,46;-13,000
200,06;82,000
200,66;-47,000
201,25;100,000
201,85;-18,000
202,45;-53,000
203,05;90,000
203,65;58,000
204,24;50,000
204,84;-5,0000
205,44;53,000
206,04;-24,000
206,64;-44,000
207,24;44,000
207,83;-48,000
208,43;-65,000
209,03;96,000
209,63;93,000
210,22;50,000
210,82;45,000
211,42;6,0000
212,02;41,000
212,62;-4,0000
213,21;-3,0000
213,81;33,000
214,41;-41,000
215,01;-65,000
215,60;-65,000
216,20;-82,000
216,80;-1,0000
217,40;8,0000
218,00;112,00
218,59;17,000
219,19;-4,0000
219,79;-22,000
220,38;29,000
220,98;171,00
221,58;58,000
222,18;-12,000
222,77;-2,0000
223,37;12,000
223,97;-49,000
224,57;-16,000
225,16;11,000
225,76;-18,000
226,36;-18,000
226,95;-9,0000
227,55;27,000
228,15;121,00
228,75;-76,000
229,34;-3,0000
229,94;33,000
230,54;-76,000
231,13;68,000
231,73;-25,000
232,33;11,000
232,92;152,00
233,52;-5,0000
234,12;-51,000
234,71;145,00
235,31;28,000
235,91;-18,000
236,50;1,0000
237,10;93,000
237,70;47,000
238,29;-16,000
238,89;21,000
239,49;-14,000
240,08;63,000
240,68;5,0000
241,28;57,000
241,87;44,000
242,47;86,000
243,06;31,000
243,66;35,000
244,26;-44,000
244,85;-1,0000
245,45;1,0000
246,05;-15,000
246,64;27,000
247,24;86,000
247,83;68,000
248,43;-46,000
249,03;30,000
249,62;110,00
250,22;16,000
250,81;-18,000
251,41;-27,000
252,01;-19,000
252,60;-2,0000
253,20;78,000
253,79;-31,000
254,39;51,000
254,98;-16,000
255,58;41,000
256,18;52,000
256,77;92,000
257,37;-30,000
257,96;37,000
258,56;53,000
259,15;128,00
259,75;11,000
260,34;24,000
260,94;98,000
261,53;11,000
262,13;7,0000
262,73;-31,000
263,32;-7,0000
263,92;-26,000
264,51;158,00
265,11;2,0000
265,70;76,000
266,30;-22,000
266,89;61,000
267,49;-36,000
268,08;-43,000
268,68;-58,000
269,27;-15,000
269,87;112,00
270,46;28,000
271,06;-57,000
271,65;-41,000
272,25;-13,000
272,84;-14,000
273,44;48,000
274,03;69,000
274,62;-74,000
275,22;36,000
275,81;15,000
276,41;65,000
277,00;71,000
277,60;146,00
278,19;100,000
278,79;51,000
279,38;89,000
279,98;62,000
280,57;45,000
281,16;-89,000
281,76;-55,000
282,35;-58,000
282,95;55,000
283,54;-65,000
284,14;-17,000
284,73;-54,000
285,32;-37,000
285,92;47,000
286,51;53,000
287,11;-4,0000
287,70;22,000
288,29;43,000
288,89;86,000
289,48;-7,0000
290,08;43,000
290,67;-8,0000
291,26;-39,000
291,86;48,000
292,45;19,000
293,04;134,00
293,64;-26,000
294,23;35,000
294,83;-55,000
295,42;44,000
296,01;36,000
296,61;85,000
297,20;6,0000
297,79;-1,0000
298,39;-54,000
298,98;-65,000
299,57;99,000
300,17;46,000
300,76;67,000
301,35;5,0000
301,95;-33,000
302,54;42,000
303,13;52,000
303,73;51,000
304,32;-30,000
304,91;57,000
305,51;130,00
306,10;91,000
306,69;37,000
307,28;16,000
307,88;17,000
308,47;-59,000
309,06;84,000
309,66;-43,000
310,25;117,00
310,84;49,000
311,43;9,0000
312,03;-3,0000
312,62;39,000
313,21;33,000
313,81;138,00
314,40;131,00
314,99;343,00
315,58;412,00
316,18;343,00
316,77;465,00
317,36;368,00
317,95;254,00
318,54;283,00
319,14;287,00
319,73;42,000
320,32;60,000
320,91;12,000
321,51;92,000
322,10;35,000
322,69;67,000
323,28;-101,00
323,87;-36,000
324,47;46,000
325,06;25,000
325,65;71,000
326,24;17,000
326,83;16,000
327,43;66,000
328,02;113,00
328,61;-3,0000
329,20;103,00
329,79;22,000
330,39;91,000
330,98;203,00
331,57;46,000
332,16;27,000
332,75;28,000
333,34;129,00
333,93;79,000
334,53;21,000
335,12;255,00
335,71;823,00
336,30;1723,0
336,89;2669,0
337,48;2785,0
338,07;2524,0
338,67;2616,0
339,26;2474,0
339,85;1940,0
340,44;1202,0
341,03;192,00
341,62;1,0000
342,21;54,000
342,80;71,000
343,39;53,000
343,99;118,00
344,58;3,0000
345,17;-56,000
345,76;20,000
346,35;49,000
346,94;-9,0000
347,53;43,000
348,12;-5,0000
348,71;52,000
349,30;87,000
349,89;213,00
350,48;37,000
351,07;116,00
351,66;281,00
352,26;700,00
352,85;781,00
353,44;889,00
354,03;992,00
354,62;962,00
355,21;1134,0
355,80;1341,0
356,39;2077,0
356,98;3275,0
357,57;3752,0
358,16;3648,0
358,75;3501,0
359,34;3474,0
359,93;3040,0
360,52;2573,0
361,11;1336,0
361,70;354,00
362,29;130,00
362,88;74,000
363,47;45,000
364,06;-26,000
364,65;133,00
365,24;36,000
365,83;42,000
366,42;109,00
367,01;55,000
367,60;222,00
368,19;49,000
368,78;63,000
369,37;124,00
369,95;176,00
370,54;273,00
371,13;358,00
371,72;358,00
372,31;419,00
372,90;343,00
373,49;547,00
374,08;685,00
374,67;979,00
375,26;1313,0
375,85;1348,0
376,44;1383,0
377,03;1218,0
377,61;1198,0
378,20;1044,0
378,79;988,00
379,38;1195,0
379,97;1872,0
380,56;2011,0
381,15;2137,0
381,74;1994,0
382,33;1854,0
382,91;1573,0
383,50;930,00
384,09;343,00
384,68;142,00
385,27;45,000
385,86;137,00
386,45;151,00
387,03;48,000
387,62;151,00
388,21;114,00
388,80;126,00
389,39;168,00
389,98;158,00
390,57;52,000
391,15;124,00
391,74;75,000
392,33;179,00
392,92;99,000
393,51;351,00
394,09;276,00
394,68;389,00
395,27;234,00
395,86;263,00
396,45;252,00
397,03;427,00
397,62;213,00
398,21;286,00
398,80;479,00
399,39;711,00
399,97;812,00
400,56;775,00
401,15;756,00
401,74;750,00
402,32;636,00
402,91;479,00
403,50;239,00
404,09;284,00
404,67;540,00
405,26;767,00
405,85;832,00
406,44;1058,0
407,02;884,00
407,61;1014,0
408,20;805,00
408,78;675,00
409,37;231,00
409,96;154,00
410,55;160,00
411,13;227,00
411,72;98,000
412,31;105,00
412,89;44,000
413,48;84,000
414,07;163,00
414,65;204,00
415,24;127,00
415,83;78,000
416,42;58,000
417,00;126,00
417,59;97,000
418,18;48,000
418,76;144,00
419,35;145,00
419,94;274,00
420,52;335,00
421,11;214,00
421,69;284,00
422,28;269,00
422,87;197,00
423,45;106,00
424,04;126,00
424,63;110,00
425,21;244,00
425,80;247,00
426,38;386,00
426,97;423,00
427,56;391,00
428,14;332,00
428,73;470,00
429,31;445,00
429,90;426,00
430,49;304,00
431,07;97,000
431,66;102,00
432,24;140,00
432,83;179,00
433,42;239,00
434,00;354,00
434,59;376,00
435,17;290,00
435,76;344,00
436,34;249,00
436,93;304,00
437,51;234,00
438,10;153,00
438,69;93,000
439,27;34,000
439,86;73,000
440,44;-11,000
441,03;0
441,61;61,000
442,20;110,00
442,78;42,000
443,37;-84,000
443,95;65,000
444,54;48,000
445,12;9,0000
445,71;78,000
446,29;59,000
446,88;38,000
447,46;52,000
448,05;167,00
448,63;118,00
449,22;83,000
449,80;143,00
450,39;67,000
450,97;60,000
451,56;44,000
452,14;63,000
452,72;16,000
453,31;2,0000
453,89;69,000
454,48;-10,0000
455,06;-32,000
455,65;31,000
456,23;106,00
456,81;90,000
457,40;137,00
457,98;148,00
458,57;155,00
459,15;144,00
459,74;107,00
460,32;90,000
460,90;137,00
461,49;66,000
462,07;20,000
462,66;33,000
463,24;-15,000
463,82;70,000
464,41;21,000
464,99;90,000
465,57;-123,00
466,16;80,000
466,74;41,000
467,33;108,00
467,91;36,000
468,49;62,000
469,08;39,000
469,66;31,000
470,24;21,000
470,83;82,000
471,41;19,000
471,99;23,000
472,58;-66,000
473,16;41,000
473,74;52,000
474,33;2,0000
474,91;102,00
475,49;-15,000
476,08;13,000
476,66;47,000
477,24;-1,0000
477,82;25,000
478,41;27,000
478,99;-23,000
479,57;-7,0000
480,16;4,0000
480,74;71,000
481,32;67,000
481,90;71,000
482,49;89,000
483,07;21,000
483,65;109,00
484,23;-22,000
484,82;62,000
485,40;31,000
485,98;111,00
486,56;23,000
487,15;59,000
487,73;113,00
488,31;-11,000
488,89;-29,000
489,47;62,000
490,06;75,000
490,64;-11,000
491,22;107,00
491,80;73,000
492,39;129,00
492,97;23,000
493,55;69,000
494,13;117,00
494,71;53,000
495,29;1,0000
495,88;-35,000
496,46;5,0000
497,04;80,000
497,62;150,00
498,20;-49,000
498,78;160,00
499,37;-20,000
499,95;12,000
500,53;68,000
501,11;-8,0000
501,69;18,000
502,27;121,00
502,85;36,000
503,44;49,000
504,02;158,00
504,60;10,0000
505,18;88,000
505,76;-88,000
506,34;67,000
506,92;-96,000
507,50;-52,000
508,08;-21,000
508,67;-7,0000
509,25;42,000
509,83;39,000
510,41;15,000
510,99;68,000
511,57;18,000
512,15;-37,000
512,73;64,000
513,31;17,000
513,89;144,00
514,47;67,000
515,05;17,000
515,63;-31,000
516,21;18,000
516,79;13,000
517,38;108,00
517,96;9,0000
518,54;-27,000
519,12;81,000
519,70;25,000
520,28;54,000
520,86;48,000
521,44;-68,000
522,02;-80,000
522,60;22,000
523,18;-27,000
523,76;27,000
524,34;-8,0000
524,92;-106,00
525,50;31,000
526,08;-88,000
526,66;-12,000
527,24;-16,000
527,82;-13,000
528,39;14,000
528,97;86,000
529,55;52,000
530,13;-89,000
530,71;75,000
531,29;101,00
531,87;87,000
532,45;15,000
533,03;21,000
533,61;-81,000
534,19;-14,000
534,77;-6,0000
535,35;31,000
535,93;21,000
536,51;42,000
537,08;67,000
537,66;19,000
538,24;43,000
538,82;-46,000
539,40;-69,000
539,98;15,000
540,56;46,000
541,14;16,000
541,72;83,000
542,29;-1,0000
542,87;-32,000
543,45;3,0000
544,03;-25,000
544,61;-30,000
545,19;2,0000
545,77;-36,000
546,34;61,000
546,92;-16,000
547,50;15,000
548,08;-2,0000
548,66;46,000
549,23;64,000
549,81;56,000
550,39;25,000
550,97;-14,000
551,55;-18,000
552,13;57,000
552,70;56,000
553,28;74,000
553,86;41,000
554,44;-11,000
555,01;101,00
555,59;-3,0000
556,17;6,0000
556,75;33,000
557,33;29,000
557,90;58,000
558,48;81,000
559,06;14,000
559,64;43,000
560,21;119,00
560,79;-16,000
561,37;-48,000
561,95;125,00
562,52;74,000
563,10;94,000
563,68;83,000
564,25;39,000
564,83;64,000
565,41;-48,000
565,99;-46,000
566,56;28,000
567,14;30,000
567,72;42,000
568,29;7,0000
568,87;22,000
569,45;26,000
570,02;42,000
570,60;90,000
571,18;30,000
571,75;70,000
572,33;52,000
572,91;17,000
573,48;-48,000
574,06;-32,000
574,64;112,00
575,21;37,000
575,79;-69,000
576,37;-29,000
576,94;123,00
577,52;15,000
578,09;88,000
578,67;76,000
579,25;4,0000
579,82;-24,000
580,40;16,000
580,97;134,00
581,55;138,00
582,13;30,000
582,70;-25,000
583,28;30,000
583,85;26,000
584,43;79,000
585,01;6,0000
585,58;35,000
586,16;22,000
586,73;-93,000
587,31;75,000
587,88;53,000
588,46;119,00
589,03;74,000
589,61;94,000
590,18;100,000
590,76;4,0000
591,34;15,000
591,91;32,000
592,49;131,00
593,06;84,000
593,64;137,00
594,21;0
594,79;52,000
595,36;11,000
595,94;2,0000
596,51;70,000
597,09;-13,000
597,66;37,000
598,24;-20,000
598,81;-99,000
599,38;137,00
599,96;91,000
600,53;44,000
601,11;54,000
601,68;36,000
602,26;4,0000
602,83;-26,000
603,41;-24,000
603,98;23,000
604,56;-37,000
605,13;23,000
605,70;99,000
606,28;74,000
606,85;70,000
607,43;42,000
608,00;63,000
608,57;65,000
609,15;50,000
609,72;51,000
610,30;37,000
610,87;79,000
611,44;98,000
612,02;82,000
612,59;30,000
613,16;124,00
613,74;-92,000
614,31;73,000
614,89;129,00
615,46;57,000
616,03;-39,000
616,61;-24,000
617,18;61,000
617,75;150,00
618,33;98,000
618,90;56,000
619,47;68,000
620,05;35,000
620,62;50,000
621,19;-81,000
621,77;-20,000
622,34;-86,000
622,91;63,000
623,48;-48,000
624,06;8,0000
624,63;-84,000
625,20;46,000
625,78;129,00
626,35;14,000
626,92;-34,000
627,49;-66,000
628,07;109,00
628,64;61,000
629,21;15,000
629,78;23,000
630,36;203,00
630,93;-12,000
631,50;-45,000
632,07;39,000
632,65;107,00
633,22;42,000
633,79;-74,000
634,36;-7,0000
634,93;-41,000
635,51;-51,000
636,08;24,000
636,65;104,00
637,22;-16,000
637,79;13,000
638,37;14,000
638,94;73,000
639,51;-1,0000
640,08;99,000
640,65;70,000
641,22;39,000
641,80;-108,00
642,37;-46,000
642,94;23,000
643,51;42,000
644,08;-41,000
644,65;10,0000
645,22;39,000
645,80;85,000
646,37;134,00
646,94;-25,000
647,51;98,000
648,08;64,000
648,65;-6,0000
649,22;-9,0000
649,79;-21,000
650,36;-1,0000
650,93;57,000
651,51;-269,00
652,08;-2,0000
652,65;47,000
653,22;79,000
653,79;52,000
654,36;-19,000
654,93;116,00
655,50;-33,000
656,07;84,000
656,64;6,0000
657,21;17,000
657,78;77,000
658,35;36,000
658,92;23,000
659,49;1,0000
660,06;29,000
660,63;45,000
661,20;134,00
661,77;117,00
662,34;108,00
662,91;4,0000
663,48;52,000
664,05;56,000
664,62;63,000
665,19;91,000
665,76;71,000
666,33;29,000
666,90;39,000
667,47;79,000
668,04;18,000
668,61;121,00
669,18;24,000
669,75;-21,000
670,32;51,000
670,89;89,000
671,46;46,000
672,03;-4,0000
672,60;65,000
673,17;78,000
673,74;-21,000
674,30;19,000
674,87;90,000
675,44;114,00
676,01;38,000
676,58;27,000
677,15;74,000
677,72;-10,0000
678,29;34,000
678,86;33,000
679,42;-5,0000
679,99;36,000
680,56;83,000
681,13;-30,000
681,70;62,000
682,27;5,0000
682,84;-22,000
683,40;30,000
683,97;0
684,54;-2,0000
685,11;71,000
685,68;109,00
686,25;18,000
686,81;7,0000
687,38;-50,000
687,95;89,000
688,52;71,000
689,09;37,000
689,65;-84,000
690,22;-3,0000
690,79;43,000
691,36;29,000
691,92;48,000
692,49;54,000
693,06;-32,000
693,63;62,000
694,20;81,000
694,76;-12,000
695,33;-54,000
695,90;88,000
696,47;-21,000
697,03;30,000
697,60;44,000
698,17;45,000
698,73;34,000
699,30;-54,000
699,87;75,000
700,44;80,000
701,00;-16,000
701,57;93,000
702,14;-54,000
702,70;6,0000
703,27;72,000
703,84;51,000
704,40;51,000
704,97;-71,000
705,54;-9,0000
706,10;49,000
706,67;16,000
707,24;-242,00
707,80;23,000
708,37;-5,0000
708,94;40,000
709,50;-19,000
710,07;91,000
710,64;-33,000
711,20;2,0000
711,77;126,00
712,33;57,000
712,90;69,000
713,47;-13,000
714,03;61,000
714,60;2,0000
715,16;-82,000
715,73;-19,000
716,30;54,000
716,86;-10,0000
717,43;-7,0000
717,99;-19,000
718,56;-18,000
719,12;44,000
719,69;-11,000
720,26;-29,000
720,82;-65,000
721,39;-14,000
721,95;-23,000
722,52;46,000
723,08;19,000
723,65;68,000
724,21;18,000
724,78;98,000
725,34;120,00
725,91;78,000
726,47;61,000
727,04;131,00
727,60;8,0000
728,17;41,000
728,73;66,000
729,30;102,00
729,86;46,000
730,43;29,000
730,99;24,000
731,56;71,000
732,12;-78,000
732,68;-87,000
733,25;8,0000
733,81;42,000
734,38;27,000
734,94;52,000
735,51;-41,000
736,07;-69,000
736,63;79,000
737,20;83,000
737,76;-9,0000
738,33;-39,000
738,89;131,00
739,46;57,000
740,02;-68,000
740,58;-7,0000
741,15;95,000
741,71;41,000
742,27;60,000
742,84;46,000
743,40;104,00
743,97;65,000
744,53;34,000
745,09;114,00
745,66;-8,0000
746,22;21,000
746,78;119,00
747,35;15,000
747,91;114,00
748,47;62,000
749,04;18,000
749,60;-28,000
750,16;43,000
750,72;33,000
751,29;114,00
751,85;-8,0000
752,41;98,000
752,98;67,000
753,54;-62,000
754,10;47,000
754,66;26,000
755,23;74,000
755,79;-18,000
756,35;-33,000
756,91;2,0000
757,48;-9,0000
758,04;0
758,60;62,000
759,16;-4,0000
759,73;-41,000
760,29;44,000
760,85;-22,000
761,41;113,00
761,98;-40,000
762,54;109,00
763,10;2,0000
763,66;7,0000
764,22;35,000
764,79;38,000
765,35;101,00
765,91;94,000
766,47;-50,000
767,03;-11,000
767,59;-49,000
768,16;19,000
768,72;81,000
769,28;157,00
769,84;-2,0000
770,40;1,0000
770,96;-9,0000
771,52;34,000
772,09;102,00
772,65;-40,000
773,21;-24,000
773,77;59,000
774,33;48,000
774,89;9,0000
775,45;-28,000
776,01;19,000
776,57;-8,0000
777,13;68,000
777,70;35,000
778,26;100,000
778,82;28,000
779,38;2,0000
779,94;27,000
780,50;112,00
781,06;61,000
781,62;36,000
782,18;0
782,74;-9,0000
783,30;-109,00
783,86;25,000
784,42;-2,0000
784,98;-47,000
785,54;-40,000
786,10;29,000
786,66;47,000
787,22;-80,000
787,78;101,00
788,34;20,000
788,90;32,000
789,46;-61,000
790,02;-61,000
790,58;-61,000
791,14;14,000
791,70;56,000
792,26;55,000
792,82;-63,000
793,38;317,00
793,94;57,000
794,50;87,000
795,06;103,00
795,62;-6,0000
796,17;13,000
796,73;-27,000
797,29;43,000
797,85;-18,000
798,41;6,0000
798,97;16,000
799,53;37,000
800,09;55,000
800,65;-11,000
801,21;-24,000
801,76;52,000
802,32;12,000
802,88;60,000
803,44;-36,000
804,00;129,00
804,56;10,0000
805,12;-19,000
805,67;84,000
806,23;149,00
806,79;54,000
807,35;-82,000
807,91;-62,000
808,46;-9,0000
809,02;7,0000
809,58;-35,000
810,14;12,000
810,70;27,000
811,26;-11,000
811,81;-14,000
812,37;57,000
812,93;75,000
813,49;-16,000
814,04;61,000
814,60;-22,000
815,16;-42,000
815,72;88,000
816,27;27,000
816,83;-59,000
817,39;21,000
817,95;77,000
818,50;41,000
819,06;-38,000
819,62;-63,000
820,18;39,000
820,73;-9,0000
821,29;-19,000
821,85;-25,000
822,40;82,000
822,96;-39,000
823,52;39,000
824,07;-20,000
824,63;41,000
825,19;-43,000
825,74;81,000
826,30;43,000
826,86;-19,000
827,41;-110,00
827,97;-10,0000
828,53;-32,000
829,08;36,000
829,64;75,000
830,20;43,000
830,75;-141,00
831,31;-46,000
831,86;-60,000
832,42;28,000
832,98;9,0000
833,53;10,0000
834,09;53,000
834,64;-52,000
835,20;16,000
835,76;95,000
836,31;-40,000
836,87;-24,000
837,42;70,000
837,98;134,00
838,53;2,0000
839,09;-8,0000
839,64;72,000
840,20;37,000
840,75;18,000
841,31;-17,000
841,87;-37,000
842,42;158,00
842,98;10,0000
843,53;-13,000
844,09;-15,000
844,64;17,000
845,20;-75,000
845,75;28,000
846,31;72,000
846,86;66,000
847,41;95,000
847,97;-39,000
848,52;46,000
849,08;62,000
849,63;-16,000
850,19;39,000
850,74;16,000
851,30;55,000
851,85;7,0000
852,41;74,000
852,96;114,00
853,51;-33,000
854,07;-37,000
854,62;35,000
855,18;1,0000
855,73;21,000
856,28;44,000
856,84;61,000
857,39;-126,00
857,95;-5,0000
858,50;-97,000
859,05;86,000
859,61;37,000
860,16;102,00
860,71;118,00
861,27;-25,000
861,82;33,000
862,37;-45,000
862,93;27,000
863,48;-1,0000
864,03;9,0000
864,59;36,000
865,14;123,00
865,69;88,000
866,25;57,000
866,80;13,000
867,35;134,00
867,90;91,000
868,46;108,00
869,01;3,0000
869,56;-14,000
870,12;49,000
870,67;75,000
871,22;89,000
871,77;85,000
872,33;-62,000
872,88;177,00
873,43;47,000
873,98;23,000
874,54;88,000
875,09;11,000
875,64;23,000
876,19;42,000
876,74;85,000
877,30;6,0000
877,85;-15,000
878,40;-18,000
878,95;-45,000
879,50;-36,000
880,06;48,000
880,61;-3,0000
881,16;31,000
881,71;127,00
882,26;29,000
882,81;5,0000
883,37;90,000
883,92;76,000
884,47;32,000
885,02;93,000
885,57;108,00
886,12;77,000
886,67;55,000
887,22;86,000
887,78;14,000
888,33;33,000
888,88;42,000
889,43;-11,000
889,98;68,000
890,53;32,000
891,08;81,000
891,63;52,000
892,18;47,000
892,73;101,00
893,28;51,000
893,83;9,0000
894,38;15,000
894,93;46,000
895,48;0
896,03;34,000
896,59;9,0000
897,14;-55,000
897,69;-82,000
898,24;30,000
898,79;10,0000
899,34;25,000
899,89;83,000
900,44;-12,000
900,99;69,000
901,53;47,000
902,08;49,000
902,63;47,000
903,18;1,0000
903,73;21,000
904,28;121,00
904,83;-35,000
905,38;170,00
905,93;69,000
906,48;8,0000
907,03;34,000
907,58;-30,000
908,13;33,000
908,68;7,0000
909,23;6,0000
909,78;-22,000
910,32;-44,000
910,87;54,000
911,42;97,000
911,97;-8,0000
912,52;127,00
913,07;-7,0000
913,62;49,000
914,17;-5,0000
914,71;28,000
915,26;56,000
915,81;15,000
916,36;-131,00
916,91;-1,0000
917,46;28,000
918,00;13,000
918,55;-23,000
919,10;-13,000
919,65;-98,000
920,20;25,000
920,74;13,000
921,29;40,000
921,84;-37,000
922,39;-4,0000
922,94;-5,0000
923,48;-67,000
924,03;44,000
924,58;-60,000
925,13;66,000
925,67;-59,000
926,22;4,0000
926,77;-71,000
927,32;-11,000
927,86;54,000
928,41;-23,000
928,96;-96,000
929,50;-42,000
930,05;-20,000
930,60;47,000
931,15;45,000
931,69;-29,000
932,24;-83,000
932,79;14,000
933,33;-78,000
933,88;4,0000
934,43;117,00
934,97;-45,000
935,52;-25,000
936,07;-83,000
936,61;-55,000
937,16;-50,000
937,71;49,000
938,25;176,00
938,80;-108,00
939,34;-2,0000
939,89;-44,000
940,44;-15,000
940,98;-49,000
941,53;43,000
942,07;49,000
942,62;57,000
943,17;-39,000
943,71;1,0000
944,26;4,0000
944,80;75,000
945,35;28,000
945,89;-37,000
946,44;121,00
946,99;28,000
947,53;84,000
948,08;1,0000
948,62;-49,000
949,17;12,000
949,71;-25,000
950,26;-45,000
950,80;-86,000
951,35;102,00
951,89;23,000
952,44;-27,000
952,98;-19,000
953,53;-57,000
954,07;-26,000
954,62;-12,000
955,16;25,000
955,71;89,000
956,25;-28,000
956,79;-35,000
957,34;7,0000
957,88;-17,000
958,43;44,000
958,97;86,000
959,52;-70,000
960,06;74,000
960,60;117,00
961,15;72,000
961,69;78,000
962,24;4,0000
962,78;39,000
963,32;16,000
963,87;43,000
964,41;-23,000
964,96;-110,00
965,50;22,000
966,04;-7,0000
966,59;21,000
967,13;-24,000
967,67;-95,000
968,22;-27,000
968,76;60,000
969,30;84,000
969,85;87,000
970,39;-1,0000
970,93;-166,00
971,47;90,000
972,02;109,00
972,56;-12,000
973,10;37,000
973,65;46,000
974,19;104,00
974,73;71,000
975,27;-16,000
975,82;-3,0000
976,36;-23,000
976,90;20,000
977,44;21,000
977,99;-16,000
978,53;-34,000
979,07;-38,000
979,61;38,000
980,16;44,000
980,70;-8,0000
981,24;-24,000
981,78;25,000
982,32;-17,000
982,87;-10,0000
983,41;50,000
983,95;76,000
984,49;-45,000
985,03;69,000
985,57;4,0000
986,12;3,0000
986,66;-25,000
987,20;10,0000
987,74;-3,0000
988,28;-18,000
988,82;38,000
989,36;66,000
989,91;-23,000
990,45;18,000
990,99;-26,000
991,53;1,0000
992,07;36,000
992,61;-62,000
993,15;-41,000
993,69;-29,000
994,23;-32,000
994,77;60,000
995,31;27,000
995,86;-46,000
996,40;10,0000
996,94;-75,000
997,48;54,000
998,02;16,000
998,56;6,0000
999,10;-77,000
999,64;39,000
1000,18;-7,0000
1000,72;1,0000
1001,26;131,00
1001,80;-69,000
1002,34;56,000
1002,88;-13,000
1003,42;50,000
1003,96;-9,0000
1004,50;81,000
1005,04;11,000
1005,58;19,000
1006,12;40,000
1006,66;11,000
1007,20;30,000
1007,73;-54,000
1008,27;110,00
1008,81;132,00
1009,35;11,000
1009,89;-1,0000
1010,43;38,000
1010,97;-9,0000
1011,51;65,000
1012,05;-35,000
1012,59;-63,000
1013,13;27,000
1013,66;38,000
1014,20;-33,000
1014,74;-11,000
1015,28;-4,0000
1015,82;25,000
1016,36;-137,00
1016,90;-6,0000
1017,43;-42,000
1017,97;-33,000
1018,51;132,00
1019,05;42,000
1019,59;52,000
1020,13;-24,000
1020,66;21,000
1021,20;-47,000
1021,74;45,000
1022,28;4,0000
1022,81;-83,000
1023,35;8,0000
1023,89;-39,000
1024,43;-57,000
1024,97;93,000
1025,50;-49,000
1026,04;14,000
1026,58;17,000
1027,12;108,00
1027,65;18,000
1028,19;-49,000
1028,73;-101,00
1029,26;5,0000
1029,80;115,00
1030,34;-40,000
1030,88;-40,000
1031,41;-28,000
1031,95;-48,000
1032,49;-30,000
1033,02;11,000
1033,56;-99,000
1034,10;-93,000
1034,63;-52,000
1035,17;68,000
1035,71;7,0000
1036,24;-25,000
1036,78;63,000
1037,32;-26,000
1037,85;55,000
1038,39;39,000
1038,92;49,000
1039,46;-36,000
1040,00;-55,000
1040,53;95,000
1041,07;13,000
1041,60;-2,0000
1042,14;53,000
1042,68;-38,000
1043,21;19,000
1043,75;55,000
1044,28;-3,0000
1044,82;-145,00
1045,35;-51,000
1045,89;69,000
1046,42;51,000
1046,96;35,000
1047,49;28,000
1048,03;-14,000
1048,57;13,000
1049,10;31,000
1049,64;43,000
1050,17;-55,000
1050,70;61,000
1051,24;6,0000
1051,77;119,00
1052,31;147,00
1052,84;27,000
1053,38;150,00
1053,91;5,0000
1054,45;27,000
1054,98;-80,000
1055,52;26,000
1056,05;85,000
1056,59;-50,000
1057,12;-61,000
1057,65;35,000
1058,19;20,000
1058,72;120,00
1059,26;-18,000
1059,79;-27,000
1060,32;43,000
1060,86;-26,000
1061,39;-29,000
1061,93;27,000
1062,46;22,000
1062,99;-46,000
1063,53;-8,0000
1064,06;87,000
1064,59;-46,000
1065,13;23,000
1065,66;-61,000
1066,19;98,000
1066,73;101,00
1067,26;-52,000
1067,79;2,0000
1068,33;14,000
1068,86;23,000
1069,39;-29,000
1069,92;19,000
1070,46;41,000
1070,99;-3,0000
1071,52;31,000
1072,05;33,000
1072,59;-20,000
1073,12;95,000
1073,65;70,000
1074,18;74,000
1074,72;-27,000
1075,25;8,0000
1075,78;1,0000
1076,31;-78,000
1076,85;183,00
1077,38;44,000
1077,91;53,000
1078,44;17,000
1078,97;44,000
1079,51;134,00
1080,04;7,0000
1080,57;57,000
1081,10;47,000
1081,63;-5,0000
1082,16;-41,000
1082,70;-144,00
1083,23;-18,000
1083,76;97,000
1084,29;-52,000
1084,82;18,000
1085,35;73,000
1085,88;-5,0000
1086,41;30,000
1086,94;14,000
1087,48;4,0000
1088,01;18,000
1088,54;-28,000
1089,07;-58,000
1089,60;-109,00
1090,13;53,000
1090,66;-77,000
1091,19;58,000
1091,72;38,000
1092,25;-21,000
1092,78;51,000
1093,31;17,000
1093,84;-1,0000
1094,37;15,000
1094,90;-4,0000
1095,43;-103,00
1095,96;44,000
1096,49;35,000
1097,02;50,000
1097,55;34,000
1098,08;-57,000
1098,61;-8,0000
1099,14;18,000
1099,67;-13,000
1100,20;31,000
